"list","ExpFiller","condition","workerid","competitor","correctAns","click1","click2","click3","click4","target","trial_order","trial_group","RT1","RT2","RT3","RT4","selection_correct","display"
"l1","Exp","never","10",1,"AOI2","1","1","1","2",2,25,"second_half",926,504,579,1209,1,2
"l1","Exp","never","50",1,"AOI2","2","2","2","2",2,16,"second_half",609,910,1314,490,1,2
"l1","Exp","never","31",1,"AOI2","1","1","2","2",2,7,"first_half",775,712,1336,712,1,2
"l1","Exp","never","44",1,"AOI2","2","2","2","2",2,32,"second_half",1515,927,1413,717,1,2
"l1","Exp","never","33",1,"AOI2","1","1","2","2",2,18,"second_half",1303,1342,1852,141,1,2
"l1","Exp","never","23",1,"AOI2","3","1","2","2",2,28,"second_half",1218,2516,1250,3751,1,2
"l1","Exp","never","17",1,"AOI2","1","1","2","2",2,10,"first_half",1731,1362,1644,758,1,2
"l1","Exp","never","22",1,"AOI2","1","1","2","2",2,6,"first_half",1179,1231,1394,893,1,2
"l1","Exp","never","5",1,"AOI2","1","1","2","2",2,14,"first_half",1184,1484,2159,890,1,2
"l1","Exp","never","46",1,"AOI2","1","1","2","2",2,25,"second_half",795,730,1043,294,1,2
"l1","Exp","never","39",1,"AOI2","1","1","2","2",2,9,"first_half",2023,1727,1673,604,1,2
"l1","Exp","rarely","44",2,"AOI1","2","2","1","1",1,25,"second_half",3788,1135,1250,674,1,1
"l1","Exp","rarely","5",2,"AOI1","1","1","1","1",1,9,"first_half",1114,1186,2647,959,1,1
"l1","Exp","rarely","39",2,"AOI1","1","1","1","1",1,11,"first_half",1126,726,1463,535,1,1
"l1","Exp","rarely","50",2,"AOI1","1","1","1","1",1,4,"first_half",1011,1058,1318,440,1,1
"l1","Exp","rarely","22",2,"AOI1","3","1","1","1",1,20,"second_half",964,1014,1664,765,1,1
"l1","Exp","rarely","17",2,"AOI1","1","1","1","1",1,30,"second_half",1584,1054,1603,752,1,1
"l1","Exp","rarely","10",2,"AOI1","1","1","1","1",1,13,"first_half",908,572,1670,642,1,1
"l1","Exp","rarely","31",2,"AOI1","1","1","1","1",1,10,"first_half",960,1160,2088,688,1,1
"l1","Exp","rarely","46",2,"AOI1","4","2","1","1",1,10,"first_half",1154,712,884,262,1,1
"l1","Exp","rarely","33",2,"AOI1","1","1","1","1",1,22,"second_half",2403,677,2266,806,1,1
"l1","Exp","rarely","23",2,"AOI1","4","2","1","1",1,11,"first_half",890,1259,1844,603,1,1
"l1","Exp","rarely","46",1,"AOI2","1","1","2","2",2,14,"first_half",696,977,1058,270,1,13
"l1","Exp","rarely","33",1,"AOI2","3","1","2","2",2,8,"first_half",1252,1387,2102,177,1,13
"l1","Exp","rarely","17",1,"AOI2","1","1","2","2",2,31,"second_half",2748,1255,1568,838,1,13
"l1","Exp","rarely","22",1,"AOI2","3","1","2","2",2,9,"first_half",940,2165,3368,859,1,13
"l1","Exp","rarely","23",1,"AOI2","4","1","2","2",2,18,"second_half",761,1224,1619,1097,1,13
"l1","Exp","rarely","10",1,"AOI2","1","1","2","2",2,31,"second_half",958,473,1068,347,1,13
"l1","Exp","rarely","50",1,"AOI2","2","2","2","2",2,15,"first_half",2346,787,1904,394,1,13
"l1","Exp","rarely","39",1,"AOI2","1","1","2","2",2,3,"first_half",1171,958,3057,933,1,13
"l1","Exp","rarely","44",1,"AOI2","2","2","2","2",2,5,"first_half",2789,901,1923,859,1,13
"l1","Exp","rarely","31",1,"AOI2","1","1","1","2",2,8,"first_half",1040,1144,1568,1688,1,13
"l1","Exp","rarely","5",1,"AOI2","3","1","2","2",2,11,"first_half",1376,1220,2184,816,1,13
"l1","Exp","usually","46",4,"AOI3","2","2","3","3",3,19,"second_half",599,1098,1418,343,1,14
"l1","Exp","usually","23",4,"AOI3","3","3","3","3",3,5,"first_half",1555,1200,1514,736,1,14
"l1","Exp","usually","39",4,"AOI3","3","3","3","3",3,20,"second_half",977,1680,71,2376,1,14
"l1","Exp","usually","44",4,"AOI3","4","4","3","3",3,16,"second_half",1424,1650,1750,876,1,14
"l1","Exp","usually","50",4,"AOI3","1","3","3","3",3,24,"second_half",641,1234,910,384,1,14
"l1","Exp","usually","33",4,"AOI3","2","3","3","3",3,29,"second_half",1048,26741,1919,161,1,14
"l1","Exp","usually","10",4,"AOI3","1","3","3","3",3,16,"second_half",728,879,1749,533,1,14
"l1","Exp","usually","22",4,"AOI3","2","4","3","3",3,13,"first_half",1042,1064,1597,679,1,14
"l1","Exp","usually","5",4,"AOI3","1","4","3","3",3,8,"first_half",1389,1329,1705,1117,1,14
"l1","Exp","usually","31",4,"AOI3","1","3","3","3",3,17,"second_half",832,1136,1216,632,1,14
"l1","Exp","usually","17",4,"AOI3","3","3","3","3",3,32,"second_half",1669,933,2003,779,1,14
"l1","Exp","rarely","23",3,"AOI4","1","3","4","4",4,12,"first_half",992,1181,891,622,1,15
"l1","Exp","rarely","39",3,"AOI4","3","3","4","4",4,28,"second_half",840,1297,1712,553,1,15
"l1","Exp","rarely","50",3,"AOI4","3","3","4","4",4,19,"second_half",834,730,1370,451,1,15
"l1","Exp","rarely","44",3,"AOI4","1","4","4","4",4,18,"second_half",1280,1124,1379,763,1,15
"l1","Exp","rarely","46",3,"AOI4","1","1","4","4",4,1,"first_half",995,799,2135,419,1,15
"l1","Exp","rarely","31",3,"AOI4","1","3","4","4",4,11,"first_half",736,1136,1864,768,1,15
"l1","Exp","rarely","10",3,"AOI4","4","4","4","4",4,23,"second_half",612,583,564,642,1,15
"l1","Exp","rarely","33",3,"AOI4","3","3","4","4",4,4,"first_half",2194,1265,2501,154,1,15
"l1","Exp","rarely","22",3,"AOI4","3","3","4","4",4,23,"second_half",1767,1355,1448,761,1,15
"l1","Exp","rarely","17",3,"AOI4","1","3","3","4",4,4,"first_half",133389,1446,2066,1799,1,15
"l1","Exp","always","31",4,"AOI3","1","3","3","3",3,29,"second_half",712,1424,1808,431,1,16
"l1","Exp","always","46",4,"AOI3","1","3","3","3",3,26,"second_half",668,785,962,484,1,16
"l1","Exp","always","10",4,"AOI3","1","3","4","3",3,10,"first_half",750,1028,1068,889,1,16
"l1","Exp","always","23",4,"AOI3","4","4","3","3",3,16,"second_half",1218,1088,1212,552,1,16
"l1","Exp","always","22",4,"AOI3","4","4","3","3",3,8,"first_half",1045,1090,1236,856,1,16
"l1","Exp","always","33",4,"AOI3","1","3","3","3",3,19,"second_half",1522,1053,1046,135,1,16
"l1","Exp","always","44",4,"AOI3","3","3","3","3",3,2,"first_half",2920,1043,1483,875,1,16
"l1","Exp","always","5",4,"AOI3","3","3","3","3",3,27,"second_half",1056,1243,1549,1492,1,16
"l1","Exp","always","39",4,"AOI3","1","3","3","3",3,31,"second_half",854,2337,1367,444,1,16
"l1","Exp","always","50",4,"AOI3","3","3","3","3",3,8,"first_half",815,742,1006,570,1,16
"l1","Exp","always","17",4,"AOI3","2","3","3","3",3,22,"second_half",1364,1742,1911,1199,1,16
"l1","Exp","always","39",2,"AOI1","1","1","1","1",1,30,"second_half",1065,712,1025,545,1,4
"l1","Exp","always","10",2,"AOI1","1","1","1","1",1,15,"first_half",1016,515,1363,494,1,4
"l1","Exp","always","33",2,"AOI1","1","1","1","1",1,14,"first_half",1628,903,1500,1206,1,4
"l1","Exp","always","22",2,"AOI1","4","1","1","1",1,25,"second_half",1080,1349,1563,790,1,4
"l1","Exp","always","5",2,"AOI1","3","1","1","1",1,31,"second_half",1083,1318,1910,1031,1,4
"l1","Exp","always","50",2,"AOI1","1","1","1","1",1,31,"second_half",1695,1902,494,584,1,4
"l1","Exp","always","31",2,"AOI1","1","1","1","1",1,28,"second_half",775,3585,1119,489,1,4
"l1","Exp","always","17",2,"AOI1","1","1","1","1",1,13,"first_half",1819,1169,2528,967,1,4
"l1","Exp","always","46",2,"AOI1","3","1","1","1",1,24,"second_half",613,1017,935,397,1,4
"l1","Exp","always","23",2,"AOI1","3","1","1","1",1,3,"first_half",1177,1003,1339,466,1,4
"l1","Exp","always","44",2,"AOI1","1","1","1","1",1,23,"second_half",1425,924,1959,833,1,4
"l1","Exp","usually","17",2,"AOI1","3","1","1","1",1,5,"first_half",1520,1418,3666,952,1,3
"l1","Exp","usually","39",2,"AOI1","4","1","1","1",1,29,"second_half",1013,1498,1601,453,1,3
"l1","Exp","usually","44",2,"AOI1","2","2","1","1",1,15,"first_half",1415,1801,2408,957,1,3
"l1","Exp","usually","46",2,"AOI1","4","2","1","1",1,12,"first_half",987,936,859,846,1,3
"l1","Exp","usually","31",2,"AOI1","1","1","1","1",1,20,"second_half",760,920,1280,840,1,3
"l1","Exp","usually","33",2,"AOI1","3","3","1","1",1,17,"second_half",1126,1256,1816,127,1,3
"l1","Exp","usually","50",2,"AOI1","3","2","1","1",1,20,"second_half",1445,1472,1586,384,1,3
"l1","Exp","usually","5",2,"AOI1","1","1","2","1",1,20,"second_half",1291,1162,1829,1388,1,3
"l1","Exp","usually","23",2,"AOI1","1","1","1","1",1,25,"second_half",1243,1106,1332,473,1,3
"l1","Exp","usually","10",2,"AOI1","1","2","1","1",1,11,"first_half",958,1254,1641,1106,1,3
"l1","Exp","usually","22",2,"AOI1","4","2","1","1",1,5,"first_half",1268,1243,1510,884,1,3
"l1","Exp","always","46",1,"AOI2","1","1","2","2",2,5,"first_half",869,816,1721,388,1,6
"l1","Exp","always","17",1,"AOI2","2","2","2","2",2,12,"first_half",3717,1760,1301,823,1,6
"l1","Exp","always","33",1,"AOI2","1","1","2","2",2,28,"second_half",1129,961,1475,477,1,6
"l1","Exp","always","23",1,"AOI2","2","2","2","2",2,23,"second_half",1267,848,1074,499,1,6
"l1","Exp","always","5",1,"AOI2","1","1","2","2",2,7,"first_half",1315,1066,2113,869,1,6
"l1","Exp","always","50",1,"AOI2","1","1","2","2",2,1,"first_half",1195,708,1494,434,1,6
"l1","Exp","always","22",1,"AOI2","3","1","2","2",2,12,"first_half",1853,1317,1884,1010,1,6
"l1","Exp","always","44",1,"AOI2","1","1","2","2",2,10,"first_half",2213,1876,1557,742,1,6
"l1","Exp","always","10",1,"AOI2","4","1","2","2",2,24,"second_half",641,979,899,386,1,6
"l1","Exp","always","31",1,"AOI2","3","1","2","2",2,15,"first_half",712,1392,1240,592,1,6
"l1","Exp","always","39",1,"AOI2","1","1","2","2",2,13,"first_half",1599,1261,1237,413,1,6
"l1","Exp","never","39",3,"AOI4","1","3","3","4",4,6,"first_half",1097,1611,1207,1713,1,5
"l1","Exp","never","22",3,"AOI4","2","2","4","4",4,22,"second_half",1195,1039,2397,1400,1,5
"l1","Exp","never","50",3,"AOI4","4","4","4","4",4,22,"second_half",1614,1448,1554,25321,1,5
"l1","Exp","never","23",3,"AOI4","3","3","4","4",4,17,"second_half",810,759,1298,491,1,5
"l1","Exp","never","5",3,"AOI4","2","3","4","4",4,12,"first_half",1155,1047,2115,855,1,5
"l1","Exp","never","46",3,"AOI4","3","3","4","4",4,20,"second_half",832,799,1286,488,1,5
"l1","Exp","never","44",3,"AOI4","1","4","4","4",4,13,"first_half",1465,2031,1436,764,1,5
"l1","Exp","never","33",3,"AOI4","3","3","4","4",4,20,"second_half",2549,1492,1242,4112,1,5
"l1","Exp","never","17",3,"AOI4","3","3","4","4",4,18,"second_half",1709,4710,2651,683,1,5
"l1","Exp","never","31",3,"AOI4","1","3","4","4",4,25,"second_half",1112,992,1264,664,1,5
"l1","Exp","never","10",3,"AOI4","1","3","4","4",4,12,"first_half",582,959,1748,426,1,5
"l1","Exp","never","39",2,"AOI1","3","1","1","1",1,18,"second_half",903,1280,919,604,1,7
"l1","Exp","never","5",2,"AOI1","4","1","1","1",1,4,"first_half",1476,1181,2175,1092,1,7
"l1","Exp","never","22",2,"AOI1","1","1","1","1",1,27,"second_half",1092,890,1421,821,1,7
"l1","Exp","never","23",2,"AOI1","2","2","1","1",1,19,"second_half",1009,769,1433,537,1,7
"l1","Exp","never","31",2,"AOI1","3","1","1","1",1,12,"first_half",736,960,1696,568,1,7
"l1","Exp","never","46",2,"AOI1","4","1","1","1",1,21,"second_half",986,997,1277,369,1,7
"l1","Exp","never","50",2,"AOI1","1","1","1","1",1,6,"first_half",1222,908,2132,442,1,7
"l1","Exp","never","33",2,"AOI1","2","2","1","1",1,31,"second_half",3016,937,2219,12137,1,7
"l1","Exp","never","17",2,"AOI1","3","1","1","1",1,9,"first_half",1671,1398,2432,873,1,7
"l1","Exp","never","10",2,"AOI1","1","2","1","1",1,1,"first_half",1044,929,1236,593,1,7
"l1","Exp","never","44",2,"AOI1","4","2","1","1",1,19,"second_half",1599,1267,1574,725,1,7
"l1","Exp","always","5",3,"AOI4","1","3","4","4",4,18,"second_half",5059,1491,2047,816,1,8
"l1","Exp","always","46",3,"AOI4","4","4","4","4",4,32,"second_half",780,1030,1182,365,1,8
"l1","Exp","always","10",3,"AOI4","1","3","3","4",4,6,"first_half",730,1364,583,1482,1,8
"l1","Exp","always","33",3,"AOI4","3","3","4","4",4,9,"first_half",1607,1911,3612,138,1,8
"l1","Exp","always","17",3,"AOI4","1","3","4","4",4,15,"first_half",1452,1262,1319,708,1,8
"l1","Exp","always","39",3,"AOI4","1","3","4","4",4,22,"second_half",1229,1128,1627,474,1,8
"l1","Exp","always","22",3,"AOI4","4","4","4","4",4,24,"second_half",1041,420,622,2289,1,8
"l1","Exp","always","50",3,"AOI4","1","3","4","4",4,21,"second_half",879,1016,1804,430,1,8
"l1","Exp","always","23",3,"AOI4","3","3","4","4",4,30,"second_half",1004,1053,1007,417,1,8
"l1","Exp","always","44",3,"AOI4","1","4","4","4",4,4,"first_half",2588,2435,1375,1123,1,8
"l1","Exp","always","31",3,"AOI4","1","3","4","4",4,6,"first_half",863,1009,1447,617,1,8
"l1","Exp","never","50",4,"AOI3","1","3","3","3",3,18,"second_half",758,1284,964,1100,1,10
"l1","Exp","never","23",4,"AOI3","2","3","3","3",3,29,"second_half",1312,1361,1078,485,1,10
"l1","Exp","never","33",4,"AOI3","3","3","3","3",3,11,"first_half",1329,808,2428,885,1,10
"l1","Exp","never","17",4,"AOI3","1","3","3","3",3,21,"second_half",1614,1427,2105,1064,1,10
"l1","Exp","never","39",4,"AOI3","1","3","3","3",3,17,"second_half",1267,1168,1555,573,1,10
"l1","Exp","never","31",4,"AOI3","1","3","3","3",3,22,"second_half",784,728,1375,560,1,10
"l1","Exp","never","10",4,"AOI3","3","3","3","3",3,19,"second_half",619,574,1404,444,1,10
"l1","Exp","never","22",4,"AOI3","3","3","3","3",3,30,"second_half",1137,1266,1218,679,1,10
"l1","Exp","never","44",4,"AOI3","4","4","3","3",3,7,"first_half",1673,1942,1858,824,1,10
"l1","Exp","never","5",4,"AOI3","2","3","3","3",3,15,"first_half",998,1016,2409,808,1,10
"l1","Exp","never","46",4,"AOI3","1","3","3","3",3,22,"second_half",655,1025,1177,333,1,10
"l1","Exp","rarely","50",4,"AOI3","1","3","3","3",3,2,"first_half",998,1324,1210,407,1,9
"l1","Exp","rarely","17",4,"AOI3","3","3","3","3",3,17,"second_half",2099,1102,1946,974,1,9
"l1","Exp","rarely","23",4,"AOI3","3","3","3","3",3,6,"first_half",1346,1097,1401,7335,1,9
"l1","Exp","rarely","44",4,"AOI3","1","4","3","3",3,11,"first_half",1314,1416,1542,717,1,9
"l1","Exp","rarely","31",4,"AOI3","1","3","3","3",3,31,"second_half",591,920,1544,576,1,9
"l1","Exp","rarely","10",4,"AOI3","1","3","3","3",3,7,"first_half",1166,880,3429,968,1,9
"l1","Exp","rarely","5",4,"AOI3","1","3","3","3",3,21,"second_half",1085,1075,1974,2921,1,9
"l1","Exp","rarely","33",4,"AOI3","1","3","3","3",3,15,"first_half",1778,25180,2573,128,1,9
"l1","Exp","rarely","22",4,"AOI3","2","4","3","3",3,29,"second_half",1092,1514,1731,723,1,9
"l1","Exp","rarely","39",4,"AOI3","1","3","3","3",3,15,"first_half",1317,1621,1350,654,1,9
"l1","Exp","usually","5",1,"AOI2","1","1","2","2",2,32,"second_half",1107,1093,1977,1030,1,11
"l1","Exp","usually","31",1,"AOI2","1","1","2","2",2,27,"second_half",1231,817,1719,913,1,11
"l1","Exp","usually","33",1,"AOI2","3","3","3","2",2,30,"second_half",3234,1184,1778,1918,1,11
"l1","Exp","usually","39",1,"AOI2","1","1","2","2",2,10,"first_half",1267,1481,1712,625,1,11
"l1","Exp","usually","50",1,"AOI2","3","1","2","2",2,9,"first_half",745,1466,1648,1004,1,11
"l1","Exp","usually","10",1,"AOI2","4","1","2","2",2,28,"second_half",562,950,1878,593,1,11
"l1","Exp","usually","46",1,"AOI2","1","1","2","2",2,6,"first_half",953,717,1873,403,1,11
"l1","Exp","usually","23",1,"AOI2","1","1","2","2",2,22,"second_half",903,1116,1778,458,1,11
"l1","Exp","usually","17",1,"AOI2","3","1","1","2",2,8,"first_half",1379,1417,2187,1160,1,11
"l1","Exp","usually","44",1,"AOI2","4","4","2","2",2,6,"first_half",2354,874,2618,917,1,11
"l1","Exp","usually","22",1,"AOI2","1","1","2","2",2,21,"second_half",936,1270,1250,818,1,11
"l1","Exp","usually","23",3,"AOI4","1","3","4","4",4,10,"first_half",2142,1274,1965,610,1,12
"l1","Exp","usually","33",3,"AOI4","1","3","4","4",4,6,"first_half",1847,1302,1827,774,1,12
"l1","Exp","usually","44",3,"AOI4","1","4","4","4",4,17,"second_half",1314,1567,1299,826,1,12
"l1","Exp","usually","50",3,"AOI4","3","3","3","4",4,25,"second_half",2727,2926,812,1918,1,12
"l1","Exp","usually","22",3,"AOI4","3","3","4","4",4,3,"first_half",1255,1167,2105,1052,1,12
"l1","Exp","usually","5",3,"AOI4","1","3","4","4",4,5,"first_half",1237,1409,2233,1183,1,12
"l1","Exp","usually","10",3,"AOI4","2","3","3","4",4,26,"second_half",632,1176,573,732,1,12
"l1","Exp","usually","17",3,"AOI4","2","4","4","4",4,14,"first_half",1831,1214,1599,855,1,12
"l1","Exp","usually","46",3,"AOI4","2","2","4","4",4,9,"first_half",587,469,2133,366,1,12
"l1","Exp","usually","39",3,"AOI4","1","3","4","4",4,16,"second_half",1408,1179,1490,1239,1,12
"l1","Exp","usually","31",3,"AOI4","1","3","4","4",4,26,"second_half",871,1312,1896,728,1,12
"l1","Filler","num75","10",1,"AOI2","2","2","2","2",2,4,"first_half",750,1868,1838,604,1,20
"l1","Filler","num75","46",1,"AOI2","1","1","2","2",2,8,"first_half",738,555,1202,313,1,20
"l1","Filler","num75","23",1,"AOI2","3","1","2","2",2,32,"second_half",1326,1446,1171,441,1,20
"l1","Filler","num75","33",1,"AOI2","3","3","2","2",2,21,"second_half",1324,997,3165,1863,1,20
"l1","Filler","num75","39",1,"AOI2","1","1","2","2",2,12,"first_half",1495,1168,2135,524,1,20
"l1","Filler","num75","50",1,"AOI2","3","1","2","2",2,3,"first_half",2041,1400,2506,394,1,20
"l1","Filler","num75","44",1,"AOI2","2","2","2","2",2,30,"second_half",2191,2499,1742,767,1,20
"l1","Filler","num75","31",1,"AOI2","3","1","2","2",2,18,"second_half",792,920,1488,640,1,20
"l1","Filler","num75","22",1,"AOI2","1","1","2","2",2,28,"second_half",1243,780,1416,930,1,20
"l1","Filler","num75","5",1,"AOI2","1","1","2","2",2,10,"first_half",1202,1295,1600,809,1,20
"l1","Filler","num75","17",1,"AOI2","3","1","2","2",2,11,"first_half",1672,1636,1712,1487,1,20
"l1","Filler","num25","5",4,"AOI3","1","4","3","3",3,6,"first_half",1597,1866,1743,916,1,22
"l1","Filler","num25","39",4,"AOI3","1","3","3","3",3,19,"second_half",1427,1768,1274,1622,1,22
"l1","Filler","num25","44",4,"AOI3","3","3","3","3",3,26,"second_half",5056,1643,2474,1101,1,22
"l1","Filler","num25","10",4,"AOI3","4","4","3","3",3,18,"second_half",1254,632,978,514,1,22
"l1","Filler","num25","50",4,"AOI3","3","3","3","3",3,13,"first_half",847,1038,2748,506,1,22
"l1","Filler","num25","17",4,"AOI3","3","3","3","3",3,19,"second_half",1873,1126,1472,746,1,22
"l1","Filler","num25","31",4,"AOI3","1","3","3","3",3,21,"second_half",736,960,1528,1040,1,22
"l1","Filler","num25","46",4,"AOI3","3","3","3","3",3,27,"second_half",1018,604,1021,345,1,22
"l1","Filler","num25","33",4,"AOI3","1","3","3","3",3,16,"second_half",1379,1233,1778,129,1,22
"l1","Filler","num25","22",4,"AOI3","1","3","3","3",3,11,"first_half",1053,1258,1375,610,1,22
"l1","Filler","num25","23",4,"AOI3","1","3","3","3",3,26,"second_half",719,858,1500,962,1,22
"l1","Filler","num0","44",2,"AOI1","4","2","1","1",1,3,"first_half",1947,2083,1709,808,1,24
"l1","Filler","num0","50",2,"AOI1","4","2","1","1",1,23,"second_half",727,1458,1418,370,1,24
"l1","Filler","num0","39",2,"AOI1","1","1","1","1",1,7,"first_half",1550,1190,1328,554,1,24
"l1","Filler","num0","46",2,"AOI1","2","2","1","1",1,7,"first_half",739,1351,1235,300,1,24
"l1","Filler","num0","22",2,"AOI1","1","1","1","1",1,18,"second_half",1169,997,1150,884,1,24
"l1","Filler","num0","10",2,"AOI1","2","2","1","1",1,5,"first_half",829,1216,840,445,1,24
"l1","Filler","num0","31",2,"AOI1","1","2","1","1",1,5,"first_half",839,848,1120,1336,1,24
"l1","Filler","num0","33",2,"AOI1","3","1","1","1",1,12,"first_half",2089,1307,2463,182,1,24
"l1","Filler","num0","17",2,"AOI1","1","1","1","1",1,1,"first_half",2359,2088,3429,1066,1,24
"l1","Filler","num0","23",2,"AOI1","4","1","1","1",1,13,"first_half",904,1098,1450,2220,1,24
"l1","Filler","num0","5",2,"AOI1","1","1","1","1",1,25,"second_half",1061,926,2087,937,1,24
"l1","Filler","num100","33",3,"AOI4","3","3","4","4",4,5,"first_half",2836,816,1957,381,1,17
"l1","Filler","num100","50",3,"AOI4","1","3","4","4",4,32,"second_half",861,1626,1198,468,1,17
"l1","Filler","num100","10",3,"AOI4","3","3","4","4",4,22,"second_half",967,515,949,474,1,17
"l1","Filler","num100","46",3,"AOI4","1","1","4","4",4,11,"first_half",653,440,4263,422,1,17
"l1","Filler","num100","44",3,"AOI4","1","4","4","4",4,8,"first_half",1808,1755,1352,1092,1,17
"l1","Filler","num100","31",3,"AOI4","1","3","4","4",4,9,"first_half",824,856,1808,624,1,17
"l1","Filler","num100","17",3,"AOI4","3","3","4","4",4,16,"second_half",1333,2480,1357,715,1,17
"l1","Filler","num100","5",3,"AOI4","3","3","4","4",4,28,"second_half",956,1118,1524,933,1,17
"l1","Filler","num100","23",3,"AOI4","1","3","4","4",4,1,"first_half",865,1634,1589,569,1,17
"l1","Filler","num100","39",3,"AOI4","4","4","4","4",4,24,"second_half",968,884,741,856,1,17
"l1","Filler","num100","22",3,"AOI4","1","3","4","4",4,7,"first_half",991,1282,1223,679,1,17
"l1","Filler","num0","17",4,"AOI3","3","3","3","3",3,23,"second_half",6849,1243,2708,1329,1,25
"l1","Filler","num0","50",4,"AOI3","4","4","4","3",3,12,"first_half",823,1099,2579,1500,1,25
"l1","Filler","num0","5",4,"AOI3","1","3","3","3",3,26,"second_half",1057,1142,2341,1408,1,25
"l1","Filler","num0","33",4,"AOI3","3","3","3","3",3,24,"second_half",2678,772,2154,1193,1,25
"l1","Filler","num0","31",4,"AOI3","1","3","3","3",3,19,"second_half",608,1168,856,1040,1,25
"l1","Filler","num0","44",4,"AOI3","1","4","4","3",3,20,"second_half",1173,1800,1442,1384,1,25
"l1","Filler","num0","10",4,"AOI3","1","3","4","3",3,14,"first_half",580,919,1018,1304,1,25
"l1","Filler","num0","23",4,"AOI3","2","3","3","3",3,24,"second_half",1483,881,1418,1035,1,25
"l1","Filler","num0","39",4,"AOI3","1","3","3","3",3,27,"second_half",1204,1646,1322,1411,1,25
"l1","Filler","num0","46",4,"AOI3","4","4","4","3",3,3,"first_half",958,702,1512,855,1,25
"l1","Filler","num0","22",4,"AOI3","1","3","3","3",3,2,"first_half",1792,1371,2001,1188,1,25
"l1","Filler","num0","22",2,"AOI1","3","1","1","1",1,14,"first_half",986,1246,1060,2124,1,26
"l1","Filler","num0","31",2,"AOI1","1","1","1","1",1,1,"first_half",1072,896,1728,1047,1,26
"l1","Filler","num0","46",2,"AOI1","1","1","1","1",1,13,"first_half",804,682,1609,837,1,26
"l1","Filler","num0","10",2,"AOI1","2","2","2","1",1,32,"second_half",1420,543,979,899,1,26
"l1","Filler","num0","50",2,"AOI1","2","2","2","1",1,30,"second_half",956,1042,1676,4284,1,26
"l1","Filler","num0","33",2,"AOI1","3","1","1","1",1,10,"first_half",3265,2410,3251,1428,1,26
"l1","Filler","num0","5",2,"AOI1","1","1","1","1",1,2,"first_half",1717,1816,2525,2279,1,26
"l1","Filler","num0","39",2,"AOI1","3","3","1","1",1,32,"second_half",835,1757,1809,1631,1,26
"l1","Filler","num0","23",2,"AOI1","1","1","2","1",1,14,"first_half",1319,1163,1946,1210,1,26
"l1","Filler","num0","17",2,"AOI1","1","1","1","1",1,29,"second_half",3187,1446,1555,1376,1,26
"l1","Filler","num0","44",2,"AOI1","2","2","2","1",1,9,"first_half",1639,1260,1657,1526,1,26
"l1","Filler","num25","31",3,"AOI4","1","3","3","4",4,2,"first_half",1215,1097,2007,1177,1,27
"l1","Filler","num25","46",3,"AOI4","4","4","4","4",4,31,"second_half",755,842,1134,1293,1,27
"l1","Filler","num25","50",3,"AOI4","4","4","4","4",4,26,"second_half",1052,1468,1352,1004,1,27
"l1","Filler","num25","10",3,"AOI4","4","4","4","4",4,27,"second_half",521,723,2183,1364,1,27
"l1","Filler","num25","44",3,"AOI4","4","4","4","4",4,29,"second_half",1188,1183,1808,1551,1,27
"l1","Filler","num25","23",3,"AOI4","1","3","3","4",4,4,"first_half",1017,1347,1698,978,1,27
"l1","Filler","num25","22",3,"AOI4","1","3","3","4",4,19,"second_half",898,1442,1554,1242,1,27
"l1","Filler","num25","17",3,"AOI4","3","3","3","4",4,25,"second_half",1393,1329,2235,1480,1,27
"l1","Filler","num25","39",3,"AOI4","1","3","3","4",4,1,"first_half",1807,2472,2110,2155,1,27
"l1","Filler","num25","33",3,"AOI4","3","3","4","4",4,7,"first_half",1265,966,3429,1642,1,27
"l1","Filler","num25","5",3,"AOI4","1","3","3","4",4,16,"second_half",956,1317,2078,1530,1,27
"l1","Filler","num25","33",1,"AOI2","1","1","1","2",2,13,"first_half",4698,1459,5800,1555,1,28
"l1","Filler","num25","10",1,"AOI2","3","1","1","2",2,8,"first_half",690,978,2204,770,1,28
"l1","Filler","num25","5",1,"AOI2","1","1","1","2",2,13,"first_half",1338,1301,1592,1545,1,28
"l1","Filler","num25","17",1,"AOI2","3","1","1","2",2,7,"first_half",1515,1319,2194,1543,1,28
"l1","Filler","num25","46",1,"AOI2","3","1","1","2",2,17,"second_half",838,1110,1560,1324,1,28
"l1","Filler","num25","31",1,"AOI2","3","1","1","2",2,4,"first_half",1439,1457,1023,1104,1,28
"l1","Filler","num25","50",1,"AOI2","4","2","2","2",2,28,"second_half",789,1510,1352,1054,1,28
"l1","Filler","num25","44",1,"AOI2","1","1","1","2",2,24,"second_half",10672,1251,1809,1634,1,28
"l1","Filler","num25","39",1,"AOI2","1","1","1","2",2,4,"first_half",1211,1014,1838,1699,1,28
"l1","Filler","num25","22",1,"AOI2","4","1","1","2",2,32,"second_half",879,1164,1224,1621,1,28
"l1","Filler","num25","23",1,"AOI2","1","1","2","2",2,7,"first_half",1160,1307,2339,684,1,28
"l1","Filler","num75","22",2,"AOI1","3","1","1","1",1,17,"second_half",1045,1400,1414,1274,1,29
"l1","Filler","num75","31",2,"AOI1","1","1","1","1",1,13,"first_half",680,1201,1807,784,1,29
"l1","Filler","num75","50",2,"AOI1","2","2","2","1",1,17,"second_half",746,716,958,1974,1,29
"l1","Filler","num75","23",2,"AOI1","1","1","1","1",1,8,"first_half",9208,833,2422,1036,1,29
"l1","Filler","num75","39",2,"AOI1","1","1","1","1",1,2,"first_half",1810,1310,2660,1614,1,29
"l1","Filler","num75","5",2,"AOI1","1","1","1","1",1,24,"second_half",1169,1722,2100,1586,1,29
"l1","Filler","num75","46",2,"AOI1","3","1","1","1",1,28,"second_half",613,767,2007,995,1,29
"l1","Filler","num75","44",2,"AOI1","4","1","1","1",1,12,"first_half",1547,1178,1913,1009,1,29
"l1","Filler","num75","10",2,"AOI1","1","2","1","1",1,2,"first_half",1530,1147,1423,1702,1,29
"l1","Filler","num75","44",3,"AOI4","2","3","3","4",4,21,"second_half",1490,1541,1575,1083,1,30
"l1","Filler","num75","46",3,"AOI4","4","4","4","4",4,2,"first_half",911,657,2222,902,1,30
"l1","Filler","num75","5",3,"AOI4","1","3","3","4",4,29,"second_half",1299,1198,1617,1309,1,30
"l1","Filler","num75","39",3,"AOI4","4","4","4","4",4,23,"second_half",894,1034,1688,974,1,30
"l1","Filler","num75","50",3,"AOI4","3","3","3","4",4,11,"first_half",2736,806,2359,1085,1,30
"l1","Filler","num75","17",3,"AOI4","4","4","4","4",4,6,"first_half",1728,1370,1679,1348,1,30
"l1","Filler","num75","31",3,"AOI4","1","3","3","4",4,32,"second_half",799,896,2264,920,1,30
"l1","Filler","num75","10",3,"AOI4","3","4","3","4",4,17,"second_half",662,1116,1541,1107,1,30
"l1","Filler","num75","22",3,"AOI4","2","3","3","4",4,4,"first_half",1257,1132,1728,1314,1,30
"l1","Filler","num75","33",3,"AOI4","1","1","3","4",4,1,"first_half",1315,595,4886,1661,1,30
"l1","Filler","num100","33",1,"AOI2","1","1","1","2",2,32,"second_half",5497,790,1751,863,1,31
"l1","Filler","num100","31",1,"AOI2","1","1","1","2",2,30,"second_half",1247,737,759,1024,1,31
"l1","Filler","num100","22",1,"AOI2","1","1","1","2",2,26,"second_half",1084,949,1482,1350,1,31
"l1","Filler","num100","44",1,"AOI2","1","1","1","2",2,14,"first_half",2691,1140,2351,1049,1,31
"l1","Filler","num100","5",1,"AOI2","1","1","1","2",2,19,"second_half",1206,1799,1743,1108,1,31
"l1","Filler","num100","39",1,"AOI2","3","1","1","2",2,26,"second_half",1073,2190,1236,1388,1,31
"l1","Filler","num100","17",1,"AOI2","1","1","1","2",2,26,"second_half",1670,1125,1819,1184,1,31
"l1","Filler","num100","46",1,"AOI2","2","2","2","2",2,18,"second_half",662,819,969,909,1,31
"l1","Filler","num100","10",1,"AOI2","1","2","1","2",2,3,"first_half",990,1126,1227,1185,1,31
"l1","Filler","num100","23",1,"AOI2","1","1","2","2",2,20,"second_half",793,696,1612,623,1,31
"l1","Filler","num100","50",1,"AOI2","2","2","2","2",2,29,"second_half",679,896,816,652,1,31
"l1","Filler","num100","46",4,"AOI3","1","3","3","3",3,16,"second_half",730,1016,1326,1215,1,32
"l1","Filler","num100","5",4,"AOI3","4","4","4","3",3,30,"second_half",1655,1284,1733,1014,1,32
"l1","Filler","num100","33",4,"AOI3","1","3","3","3",3,23,"second_half",911,1790,3089,845,1,32
"l1","Filler","num100","23",4,"AOI3","4","4","3","3",3,31,"second_half",675,909,1727,714,1,32
"l1","Filler","num100","44",4,"AOI3","1","4","4","3",3,1,"first_half",2663,2332,1850,1141,1,32
"l1","Filler","num100","50",4,"AOI3","2","3","3","3",3,10,"first_half",802,1140,802,108,1,32
"l1","Filler","num100","17",4,"AOI3","1","3","3","3",3,2,"first_half",2998,1865,2355,1523,1,32
"l1","Filler","num100","10",4,"AOI3","3","3","3","3",3,20,"second_half",612,514,712,929,1,32
"l1","Filler","num100","22",4,"AOI3","2","4","4","3",3,16,"second_half",1595,1595,1171,1256,1,32
"l1","Filler","num100","31",4,"AOI3","1","3","3","3",3,3,"first_half",879,1096,2089,871,1,32
"l1","Filler","num100","39",4,"AOI3","1","3","3","3",3,21,"second_half",1933,1623,2303,758,1,32
"l1","Filler","num0","5",1,"AOI2","1","1","2","2",2,1,"first_half",1296,1795,1955,1170,1,23
"l1","Filler","num0","46",1,"AOI2","1","1","2","2",2,29,"second_half",1398,772,4457,388,1,23
"l1","Filler","num0","33",1,"AOI2","1","1","2","2",2,26,"second_half",1387,669,4105,1530,1,23
"l1","Filler","num0","23",1,"AOI2","3","1","2","2",2,27,"second_half",882,1858,1330,440,1,23
"l1","Filler","num0","50",1,"AOI2","3","1","2","2",2,14,"first_half",980,1488,2068,486,1,23
"l1","Filler","num0","44",1,"AOI2","4","1","2","2",2,22,"second_half",1324,1366,1558,690,1,23
"l1","Filler","num0","22",1,"AOI2","1","1","2","2",2,15,"first_half",1123,1179,1310,722,1,23
"l1","Filler","num0","17",1,"AOI2","1","1","2","2",2,3,"first_half",1591,1497,1740,1462,1,23
"l1","Filler","num0","10",1,"AOI2","1","1","2","2",2,30,"second_half",1096,573,1157,405,1,23
"l1","Filler","num0","31",1,"AOI2","1","1","2","2",2,24,"second_half",776,1168,1255,584,1,23
"l1","Filler","num0","39",1,"AOI2","1","1","2","2",2,8,"first_half",1987,1587,1471,533,1,23
"l1","Filler","num100","17",4,"AOI3","3","3","3","3",3,27,"second_half",4758,978,1548,802,1,18
"l1","Filler","num100","44",4,"AOI3","2","4","3","3",3,27,"second_half",2657,4100,1182,709,1,18
"l1","Filler","num100","46",4,"AOI3","1","3","3","3",3,23,"second_half",681,948,935,396,1,18
"l1","Filler","num100","22",4,"AOI3","1","3","3","3",3,1,"first_half",995,1293,1362,475,1,18
"l1","Filler","num100","31",4,"AOI3","1","3","3","3",3,16,"second_half",648,968,768,672,1,18
"l1","Filler","num100","50",4,"AOI3","1","3","3","3",3,7,"first_half",793,1694,864,634,1,18
"l1","Filler","num100","10",4,"AOI3","2","3","3","3",3,29,"second_half",582,1127,594,444,1,18
"l1","Filler","num100","39",4,"AOI3","4","4","3","3",3,25,"second_half",970,1115,1309,664,1,18
"l1","Filler","num100","5",4,"AOI3","1","3","3","3",3,22,"second_half",1178,1145,1422,1028,1,18
"l1","Filler","num100","23",4,"AOI3","3","3","3","3",3,2,"first_half",1957,1027,1364,666,1,18
"l1","Filler","num100","33",4,"AOI3","1","3","3","3",3,3,"first_half",1633,1748,1461,338,1,18
"l1","Filler","num25","22",3,"AOI4","3","3","4","4",4,31,"second_half",1542,1724,1794,908,1,21
"l1","Filler","num25","50",3,"AOI4","4","4","4","4",4,27,"second_half",776,1280,2189,688,1,21
"l1","Filler","num25","5",3,"AOI4","1","4","4","4",4,3,"first_half",1672,1306,2457,991,1,21
"l1","Filler","num25","31",3,"AOI4","1","3","4","4",4,14,"first_half",792,928,1136,672,1,21
"l1","Filler","num25","10",3,"AOI4","3","3","4","4",4,21,"second_half",592,583,998,376,1,21
"l1","Filler","num25","17",3,"AOI4","3","3","4","4",4,24,"second_half",1592,1211,1262,679,1,21
"l1","Filler","num25","33",3,"AOI4","3","3","4","4",4,2,"first_half",1742,1391,2806,916,1,21
"l1","Filler","num25","44",3,"AOI4","1","3","4","4",4,28,"second_half",1331,1224,1183,643,1,21
"l1","Filler","num25","46",3,"AOI4","2","4","4","4",4,30,"second_half",783,1377,1011,350,1,21
"l1","Filler","num25","23",3,"AOI4","1","3","4","4",4,15,"first_half",929,3071,977,401,1,21
"l1","Filler","num25","39",3,"AOI4","1","3","4","4",4,14,"first_half",1148,1820,968,2467,1,21
"l1","Filler","num75","31",2,"AOI1","1","1","1","1",1,23,"second_half",1095,913,960,599,1,19
"l1","Filler","num75","23",2,"AOI1","1","1","1","1",1,21,"second_half",5655,1555,1443,400,1,19
"l1","Filler","num75","50",2,"AOI1","1","1","1","1",1,5,"first_half",944,724,1244,890,1,19
"l1","Filler","num75","44",2,"AOI1","2","2","1","1",1,31,"second_half",4156,1616,1426,774,1,19
"l1","Filler","num75","10",2,"AOI1","1","2","1","1",1,9,"first_half",1382,672,968,494,1,19
"l1","Filler","num75","17",2,"AOI1","1","1","1","1",1,20,"second_half",3075,1056,1480,864,1,19
"l1","Filler","num75","39",2,"AOI1","1","1","1","1",1,5,"first_half",1439,614,1865,533,1,19
"l1","Filler","num75","46",2,"AOI1","1","1","1","1",1,15,"first_half",689,759,1761,537,1,19
"l1","Filler","num75","22",2,"AOI1","1","1","1","1",1,10,"first_half",1056,1004,1491,1150,1,19
"l1","Filler","num75","33",2,"AOI1","1","1","1","1",1,27,"second_half",1049,691,3257,566,1,19
"l1","Filler","num75","5",2,"AOI1","1","1","1","1",1,23,"second_half",1129,1150,1950,816,1,19
"l2","Exp","always","52",1,"AOI2","1","1","2","2",2,2,"first_half",1572,1576,2071,1244,1,2
"l2","Exp","always","45",1,"AOI2","3","1","2","2",2,32,"second_half",2090,2636,1868,2896,1,2
"l2","Exp","always","6",1,"AOI2","3","1","2","2",2,12,"first_half",1508,1673,1506,525,1,2
"l2","Exp","always","9",1,"AOI2","1","1","2","2",2,19,"second_half",800,913,1354,344,1,2
"l2","Exp","always","55",1,"AOI2","3","1","2","2",2,30,"second_half",1311,1120,1312,392,1,2
"l2","Exp","always","30",1,"AOI2","3","1","2","2",2,11,"first_half",1905,1110,2735,1283,1,2
"l2","Exp","always","59",1,"AOI2","4","1","2","2",2,1,"first_half",4217,2504,1768,880,1,2
"l2","Exp","always","34",1,"AOI2","3","3","2","2",2,29,"second_half",528,360,1800,296,1,2
"l2","Exp","always","49",1,"AOI2","3","1","2","2",2,7,"first_half",750,1478,932,307,1,2
"l2","Exp","never","45",2,"AOI1","3","2","1","1",1,10,"first_half",1836,1267,1244,837,1,1
"l2","Exp","never","55",2,"AOI1","2","2","1","1",1,10,"first_half",1607,952,960,432,1,1
"l2","Exp","never","6",2,"AOI1","1","1","1","1",1,4,"first_half",1054,1232,2855,867,1,1
"l2","Exp","never","9",2,"AOI1","1","1","1","1",1,5,"first_half",1769,729,1449,481,1,1
"l2","Exp","never","52",2,"AOI1","1","1","1","1",1,32,"second_half",746,964,940,696,1,1
"l2","Exp","never","34",2,"AOI1","4","4","1","1",1,31,"second_half",621,424,2945,327,1,1
"l2","Exp","never","59",2,"AOI1","2","2","1","1",1,24,"second_half",2239,1192,1184,617,1,1
"l2","Exp","never","49",2,"AOI1","2","2","1","1",1,11,"first_half",8379,510,1018,386,1,1
"l2","Exp","never","30",2,"AOI1","2","2","2","1",1,32,"second_half",830,635,524,796,1,1
"l2","Exp","never","9",1,"AOI2","2","2","2","2",2,32,"second_half",881,752,816,546,1,13
"l2","Exp","never","30",1,"AOI2","4","4","2","2",2,3,"first_half",1040,1033,1802,224,1,13
"l2","Exp","never","34",1,"AOI2","2","2","2","2",2,24,"second_half",392,510,1874,279,1,13
"l2","Exp","never","45",1,"AOI2","1","1","2","2",2,23,"second_half",985,1327,1679,234,1,13
"l2","Exp","never","6",1,"AOI2","1","1","2","2",2,22,"second_half",930,714,1918,534,1,13
"l2","Exp","never","52",1,"AOI2","4","2","2","2",2,11,"first_half",850,1193,1723,507,1,13
"l2","Exp","never","49",1,"AOI2","4","1","2","2",2,8,"first_half",1428,2084,3751,374,1,13
"l2","Exp","never","59",1,"AOI2","3","1","2","2",2,31,"second_half",1152,1376,2320,1441,1,13
"l2","Exp","never","55",1,"AOI2","3","1","2","2",2,6,"first_half",2080,1160,1528,576,1,13
"l2","Exp","rarely","9",4,"AOI3","3","3","3","3",3,1,"first_half",1576,713,2211,416,1,14
"l2","Exp","rarely","59",4,"AOI3","1","3","3","3",3,4,"first_half",1368,2384,2161,856,1,14
"l2","Exp","rarely","45",4,"AOI3","3","3","3","3",3,15,"first_half",1041,1211,1631,734,1,14
"l2","Exp","rarely","49",4,"AOI3","3","3","3","3",3,6,"first_half",1249,571,3386,465,1,14
"l2","Exp","rarely","52",4,"AOI3","3","3","3","3",3,7,"first_half",758,1167,1351,427,1,14
"l2","Exp","rarely","6",4,"AOI3","4","4","3","3",3,14,"first_half",1147,736,1330,819,1,14
"l2","Exp","rarely","55",4,"AOI3","3","3","3","3",3,32,"second_half",544,720,1152,696,1,14
"l2","Exp","rarely","34",4,"AOI3","1","1","1","3",3,32,"second_half",552,480,5008,3848,1,14
"l2","Exp","rarely","30",4,"AOI3","1","1","3","3",3,18,"second_half",2554,824,2388,984,1,14
"l2","Exp","never","55",3,"AOI4","1","1","4","4",4,16,"second_half",1087,584,2064,424,1,15
"l2","Exp","never","49",3,"AOI4","3","3","4","4",4,2,"first_half",4991,1016,1503,444,1,15
"l2","Exp","never","6",3,"AOI4","1","3","4","4",4,32,"second_half",861,1249,1106,226,1,15
"l2","Exp","never","52",3,"AOI4","4","4","4","4",4,29,"second_half",905,773,782,1076,1,15
"l2","Exp","never","45",3,"AOI4","3","3","4","4",4,20,"second_half",1259,995,1261,654,1,15
"l2","Exp","never","9",3,"AOI4","2","3","4","4",4,20,"second_half",705,1025,1257,464,1,15
"l2","Exp","never","34",3,"AOI4","4","4","4","4",4,11,"first_half",648,871,1937,304,1,15
"l2","Exp","never","59",3,"AOI4","1","4","4","4",4,19,"second_half",905,2168,1208,568,1,15
"l2","Exp","never","30",3,"AOI4","3","3","4","4",4,9,"first_half",1193,565,1928,614,1,15
"l2","Exp","usually","6",4,"AOI3","1","3","3","3",3,7,"first_half",984,1820,1809,859,1,16
"l2","Exp","usually","55",4,"AOI3","3","3","3","3",3,11,"first_half",1319,720,1384,448,1,16
"l2","Exp","usually","45",4,"AOI3","1","3","3","3",3,31,"second_half",1569,1348,2391,1716,1,16
"l2","Exp","usually","52",4,"AOI3","3","3","3","3",3,6,"first_half",888,1012,680,410,1,16
"l2","Exp","usually","59",4,"AOI3","1","3","3","3",3,16,"second_half",1152,1825,1407,577,1,16
"l2","Exp","usually","49",4,"AOI3","3","3","3","3",3,23,"second_half",1517,532,1004,507,1,16
"l2","Exp","usually","34",4,"AOI3","1","1","4","3",3,13,"first_half",1192,640,2294,1073,1,16
"l2","Exp","usually","9",4,"AOI3","3","3","3","3",3,22,"second_half",833,568,977,1017,1,16
"l2","Exp","usually","30",4,"AOI3","2","4","3","3",3,12,"first_half",991,1110,1577,1194,1,16
"l2","Exp","rarely","34",2,"AOI1","3","1","1","1",1,3,"first_half",1264,1096,2312,392,1,3
"l2","Exp","rarely","55",2,"AOI1","1","1","1","1",1,7,"first_half",936,1368,760,448,1,3
"l2","Exp","rarely","9",2,"AOI1","4","1","1","1",1,30,"second_half",1129,1243,615,584,1,3
"l2","Exp","rarely","52",2,"AOI1","1","1","1","1",1,26,"second_half",731,655,1383,608,1,3
"l2","Exp","rarely","49",2,"AOI1","2","2","1","1",1,20,"second_half",1154,524,1068,357,1,3
"l2","Exp","rarely","45",2,"AOI1","1","1","1","1",1,12,"first_half",2702,1191,1945,1695,1,3
"l2","Exp","rarely","6",2,"AOI1","1","1","1","1",1,11,"first_half",1610,1072,2356,686,1,3
"l2","Exp","rarely","59",2,"AOI1","2","2","1","1",1,20,"second_half",1320,712,1256,600,1,3
"l2","Exp","rarely","30",2,"AOI1","3","1","1","1",1,5,"first_half",3064,1347,1040,845,1,3
"l2","Exp","usually","30",2,"AOI1","2","2","1","1",1,17,"second_half",923,314,2067,593,1,4
"l2","Exp","usually","49",2,"AOI1","1","1","1","1",1,10,"first_half",10583,978,2470,416,1,4
"l2","Exp","usually","9",2,"AOI1","1","1","2","1",1,3,"first_half",1673,816,1323,1305,1,4
"l2","Exp","usually","55",2,"AOI1","3","1","1","1",1,4,"first_half",1063,1592,1392,696,1,4
"l2","Exp","usually","45",2,"AOI1","2","2","2","1",1,2,"first_half",2115,827,2151,2126,1,4
"l2","Exp","usually","6",2,"AOI1","3","2","1","1",1,3,"first_half",1282,1198,2151,810,1,4
"l2","Exp","usually","59",2,"AOI1","3","2","1","1",1,25,"second_half",1176,1504,2048,936,1,4
"l2","Exp","usually","34",2,"AOI1","4","4","4","1",1,16,"second_half",408,856,584,911,1,4
"l2","Exp","always","6",3,"AOI4","2","4","4","4",4,13,"first_half",1184,1561,1079,220,1,5
"l2","Exp","always","34",3,"AOI4","2","2","4","4",4,30,"second_half",1007,416,1432,251,1,5
"l2","Exp","always","59",3,"AOI4","1","1","1","4",4,9,"first_half",2865,1632,1576,4225,1,5
"l2","Exp","always","9",3,"AOI4","4","4","4","4",4,29,"second_half",2354,761,1459,583,1,5
"l2","Exp","always","30",3,"AOI4","1","1","4","4",4,25,"second_half",733,621,1187,2958,1,5
"l2","Exp","always","49",3,"AOI4","3","3","4","4",4,26,"second_half",1073,691,1065,533,1,5
"l2","Exp","always","45",3,"AOI4","1","3","4","4",4,7,"first_half",1872,1408,2454,667,1,5
"l2","Exp","always","55",3,"AOI4","3","3","4","4",4,21,"second_half",1551,737,831,392,1,5
"l2","Exp","always","52",3,"AOI4","2","4","4","4",4,4,"first_half",948,1058,953,427,1,5
"l2","Exp","usually","55",1,"AOI2","1","1","2","2",2,9,"first_half",871,664,856,392,1,6
"l2","Exp","usually","34",1,"AOI2","1","1","2","2",2,20,"second_half",680,480,2735,304,1,6
"l2","Exp","usually","52",1,"AOI2","1","1","1","2",2,1,"first_half",1168,1178,719,2731,1,6
"l2","Exp","usually","45",1,"AOI2","2","2","2","2",2,17,"second_half",1073,1228,1961,1235,1,6
"l2","Exp","usually","59",1,"AOI2","3","2","2","2",2,29,"second_half",2112,3224,1560,1280,1,6
"l2","Exp","usually","9",1,"AOI2","3","3","1","2",2,12,"first_half",1079,939,1680,929,1,6
"l2","Exp","usually","6",1,"AOI2","4","2","2","2",2,9,"first_half",1809,1837,868,1448,1,6
"l2","Exp","usually","49",1,"AOI2","1","1","2","2",2,9,"first_half",3831,762,1654,474,1,6
"l2","Exp","usually","30",1,"AOI2","3","3","3","2",2,30,"second_half",949,1704,2898,2402,1,6
"l2","Exp","always","55",2,"AOI1","3","1","1","1",1,26,"second_half",1144,1720,976,712,1,7
"l2","Exp","always","30",2,"AOI1","4","4","1","1",1,24,"second_half",1382,1061,1389,378,1,7
"l2","Exp","always","59",2,"AOI1","1","1","1","1",1,15,"first_half",1023,1729,1048,656,1,7
"l2","Exp","always","49",2,"AOI1","3","3","1","1",1,1,"first_half",2060,672,1979,692,1,7
"l2","Exp","always","34",2,"AOI1","1","1","1","1",1,17,"second_half",839,760,945,399,1,7
"l2","Exp","always","52",2,"AOI1","3","1","1","1",1,15,"first_half",1073,1281,826,435,1,7
"l2","Exp","always","6",2,"AOI1","2","2","1","1",1,21,"second_half",850,821,1230,226,1,7
"l2","Exp","always","9",2,"AOI1","4","1","1","1",1,24,"second_half",664,1081,632,625,1,7
"l2","Exp","always","45",2,"AOI1","2","2","1","1",1,22,"second_half",1339,1256,1219,234,1,7
"l2","Exp","usually","49",3,"AOI4","1","3","3","4",4,21,"second_half",1253,1713,1442,646,1,8
"l2","Exp","usually","52",3,"AOI4","2","3","4","4",4,10,"first_half",1644,1173,2031,964,1,8
"l2","Exp","usually","9",3,"AOI4","1","3","4","4",4,9,"first_half",825,1200,1458,496,1,8
"l2","Exp","usually","34",3,"AOI4","2","2","4","4",4,25,"second_half",576,520,3304,280,1,8
"l2","Exp","usually","45",3,"AOI4","1","3","4","4",4,9,"first_half",1477,2717,1774,880,1,8
"l2","Exp","usually","6",3,"AOI4","1","3","4","4",4,30,"second_half",1231,1170,1079,214,1,8
"l2","Exp","usually","55",3,"AOI4","1","3","4","4",4,20,"second_half",1639,992,833,343,1,8
"l2","Exp","usually","59",3,"AOI4","1","3","4","4",4,14,"first_half",1552,1144,1536,792,1,8
"l2","Exp","usually","30",3,"AOI4","3","3","4","4",4,26,"second_half",5040,1453,1088,252,1,8
"l2","Exp","always","49",4,"AOI3","2","4","3","3",3,25,"second_half",14863,1198,912,318,1,10
"l2","Exp","always","52",4,"AOI3","2","3","3","3",3,19,"second_half",892,1220,2151,458,1,10
"l2","Exp","always","6",4,"AOI3","3","3","3","3",3,2,"first_half",1746,1309,1722,1043,1,10
"l2","Exp","always","30",4,"AOI3","3","3","3","3",3,29,"second_half",832,698,7558,1159,1,10
"l2","Exp","always","59",4,"AOI3","3","3","3","3",3,12,"first_half",1888,1025,872,712,1,10
"l2","Exp","always","55",4,"AOI3","1","3","3","3",3,27,"second_half",792,1168,688,456,1,10
"l2","Exp","always","45",4,"AOI3","2","2","3","3",3,5,"first_half",2828,2178,3919,686,1,10
"l2","Exp","always","9",4,"AOI3","1","3","3","3",3,16,"second_half",703,1265,577,657,1,10
"l2","Exp","never","59",4,"AOI3","1","3","3","3",3,10,"first_half",3856,1193,3881,703,1,9
"l2","Exp","never","9",4,"AOI3","2","4","3","3",3,13,"first_half",944,1233,1322,440,1,9
"l2","Exp","never","30",4,"AOI3","4","4","4","3",3,10,"first_half",2925,2857,1306,1542,1,9
"l2","Exp","never","52",4,"AOI3","3","3","3","3",3,24,"second_half",1714,1079,1747,1564,1,9
"l2","Exp","never","45",4,"AOI3","3","3","3","3",3,11,"first_half",2186,831,1300,633,1,9
"l2","Exp","never","34",4,"AOI3","3","3","3","3",3,27,"second_half",544,408,2024,266,1,9
"l2","Exp","never","55",4,"AOI3","1","3","3","3",3,18,"second_half",751,1384,1192,848,1,9
"l2","Exp","never","6",4,"AOI3","1","3","3","3",3,5,"first_half",991,1303,2079,671,1,9
"l2","Exp","never","49",4,"AOI3","3","3","3","3",3,17,"second_half",1128,751,920,448,1,9
"l2","Exp","rarely","52",1,"AOI2","3","1","2","2",2,3,"first_half",3391,1212,1607,372,1,11
"l2","Exp","rarely","30",1,"AOI2","2","2","2","2",2,16,"second_half",3268,1416,4413,356,1,11
"l2","Exp","rarely","45",1,"AOI2","3","1","2","2",2,21,"second_half",1712,2030,1699,379,1,11
"l2","Exp","rarely","6",1,"AOI2","1","1","2","2",2,27,"second_half",1122,809,1144,227,1,11
"l2","Exp","rarely","9",1,"AOI2","4","2","2","2",2,27,"second_half",709,1219,942,695,1,11
"l2","Exp","rarely","55",1,"AOI2","1","1","2","2",2,2,"first_half",1631,1168,1672,824,1,11
"l2","Exp","rarely","49",1,"AOI2","3","1","2","2",2,4,"first_half",1034,1427,1625,403,1,11
"l2","Exp","rarely","59",1,"AOI2","4","2","2","2",2,8,"first_half",1960,1792,2233,1840,1,11
"l2","Exp","rarely","34",1,"AOI2","1","1","2","2",2,18,"second_half",456,752,1792,312,1,11
"l2","Exp","rarely","34",3,"AOI4","4","4","4","4",4,10,"first_half",648,1464,2224,624,1,12
"l2","Exp","rarely","55",3,"AOI4","3","3","4","4",4,23,"second_half",1751,1072,792,352,1,12
"l2","Exp","rarely","30",3,"AOI4","2","3","4","4",4,4,"first_half",1207,1431,2185,831,1,12
"l2","Exp","rarely","9",3,"AOI4","1","3","4","4",4,26,"second_half",1328,1154,1383,401,1,12
"l2","Exp","rarely","52",3,"AOI4","3","3","3","4",4,13,"first_half",1089,1352,2683,1144,1,12
"l2","Exp","rarely","45",3,"AOI4","1","3","4","4",4,13,"first_half",1682,2309,3094,1146,1,12
"l2","Exp","rarely","49",3,"AOI4","1","4","4","4",4,5,"first_half",1298,1970,1155,424,1,12
"l2","Exp","rarely","59",3,"AOI4","1","3","4","4",4,26,"second_half",1408,1280,3513,511,1,12
"l2","Exp","rarely","6",3,"AOI4","3","3","4","4",4,17,"second_half",1034,1296,1587,369,1,12
"l2","Filler","num75","30",1,"AOI2","2","2","2","2",2,7,"first_half",1227,1040,1893,328,1,20
"l2","Filler","num75","6",1,"AOI2","1","1","2","2",2,25,"second_half",986,775,1389,223,1,20
"l2","Filler","num75","59",1,"AOI2","4","1","2","2",2,5,"first_half",3128,1937,1840,936,1,20
"l2","Filler","num75","55",1,"AOI2","3","2","2","2",2,8,"first_half",1352,1705,1144,448,1,20
"l2","Filler","num75","52",1,"AOI2","1","1","2","2",2,21,"second_half",715,970,1259,868,1,20
"l2","Filler","num75","49",1,"AOI2","1","1","2","2",2,14,"first_half",1605,616,1133,513,1,20
"l2","Filler","num75","34",1,"AOI2","1","1","2","2",2,2,"first_half",1408,1992,2128,351,1,20
"l2","Filler","num75","9",1,"AOI2","1","1","2","2",2,2,"first_half",2497,537,1185,481,1,20
"l2","Filler","num75","45",1,"AOI2","2","2","1","2",2,18,"second_half",1372,2535,2938,5287,1,20
"l2","Filler","num25","34",4,"AOI3","4","4","3","3",3,26,"second_half",257,518,3352,400,1,22
"l2","Filler","num25","45",4,"AOI3","3","3","3","3",3,14,"first_half",2030,1074,1538,451,1,22
"l2","Filler","num25","9",4,"AOI3","1","3","3","3",3,25,"second_half",680,1730,904,409,1,22
"l2","Filler","num25","55",4,"AOI3","1","3","3","3",3,15,"first_half",927,1440,1512,368,1,22
"l2","Filler","num25","30",4,"AOI3","1","1","3","3",3,14,"first_half",1088,1313,1550,182,1,22
"l2","Filler","num25","52",4,"AOI3","4","4","3","3",3,14,"first_half",767,759,1561,577,1,22
"l2","Filler","num25","6",4,"AOI3","4","4","3","3",3,16,"second_half",226,1432,1773,416,1,22
"l2","Filler","num25","59",4,"AOI3","1","3","3","3",3,13,"first_half",1936,1304,1353,752,1,22
"l2","Filler","num25","49",4,"AOI3","1","4","3","3",3,16,"second_half",1948,1339,755,354,1,22
"l2","Filler","num0","55",2,"AOI1","3","1","1","1",1,24,"second_half",1071,976,1240,600,1,24
"l2","Filler","num0","49",2,"AOI1","4","1","1","1",1,27,"second_half",1092,1727,1410,328,1,24
"l2","Filler","num0","59",2,"AOI1","1","1","1","1",1,22,"second_half",1263,1801,1384,824,1,24
"l2","Filler","num0","9",2,"AOI1","3","1","1","1",1,18,"second_half",680,1284,1263,505,1,24
"l2","Filler","num0","45",2,"AOI1","4","2","1","1",1,8,"first_half",1355,1998,1824,876,1,24
"l2","Filler","num0","52",2,"AOI1","4","2","1","1",1,30,"second_half",742,1687,1557,576,1,24
"l2","Filler","num0","6",2,"AOI1","3","1","1","1",1,24,"second_half",1477,1270,1875,224,1,24
"l2","Filler","num0","30",2,"AOI1","3","3","1","1",1,13,"first_half",875,905,4692,516,1,24
"l2","Filler","num0","34",2,"AOI1","2","2","1","1",1,19,"second_half",607,480,1584,231,1,24
"l2","Filler","num100","59",3,"AOI4","3","3","4","4",4,11,"first_half",1328,2760,1072,760,1,17
"l2","Filler","num100","45",3,"AOI4","2","3","4","4",4,19,"second_half",4047,1219,1086,411,1,17
"l2","Filler","num100","30",3,"AOI4","2","3","4","4",4,23,"second_half",983,1781,998,462,1,17
"l2","Filler","num100","6",3,"AOI4","1","3","4","4",4,29,"second_half",873,1312,1348,226,1,17
"l2","Filler","num100","55",3,"AOI4","1","1","4","4",4,19,"second_half",871,1152,1984,392,1,17
"l2","Filler","num100","52",3,"AOI4","2","3","4","4",4,28,"second_half",763,1106,1463,513,1,17
"l2","Filler","num100","9",3,"AOI4","3","3","4","4",4,14,"first_half",760,1081,1209,417,1,17
"l2","Filler","num100","49",3,"AOI4","1","3","4","4",4,32,"second_half",1309,1348,1060,238,1,17
"l2","Filler","num100","34",3,"AOI4","3","3","4","4",4,15,"first_half",608,417,1944,304,1,17
"l2","Filler","num0","45",4,"AOI3","3","3","3","3",3,28,"second_half",904,589,1328,1533,1,25
"l2","Filler","num0","6",4,"AOI3","1","3","3","3",3,1,"first_half",2138,1364,2982,2033,1,25
"l2","Filler","num0","55",4,"AOI3","3","3","3","3",3,13,"first_half",1239,776,1704,952,1,25
"l2","Filler","num0","30",4,"AOI3","2","3","4","3",3,8,"first_half",907,915,1905,1005,1,25
"l2","Filler","num0","59",4,"AOI3","1","4","4","3",3,30,"second_half",976,1208,1489,992,1,25
"l2","Filler","num0","34",4,"AOI3","4","4","4","3",3,8,"first_half",727,640,1816,2640,1,25
"l2","Filler","num0","49",4,"AOI3","4","4","4","3",3,3,"first_half",2148,583,1512,903,1,25
"l2","Filler","num0","9",4,"AOI3","4","4","4","3",3,21,"second_half",769,768,968,1130,1,25
"l2","Filler","num0","52",2,"AOI1","3","1","1","1",1,20,"second_half",825,1068,1675,1147,1,26
"l2","Filler","num0","59",2,"AOI1","1","1","1","1",1,17,"second_half",904,1352,2472,1657,1,26
"l2","Filler","num0","6",2,"AOI1","2","2","2","1",1,28,"second_half",1477,957,1550,1199,1,26
"l2","Filler","num0","45",2,"AOI1","3","1","1","1",1,30,"second_half",1401,1428,1417,2381,1,26
"l2","Filler","num0","9",2,"AOI1","2","2","2","1",1,10,"first_half",1224,713,1866,1986,1,26
"l2","Filler","num0","30",2,"AOI1","3","2","1","1",1,19,"second_half",1228,1640,1593,1710,1,26
"l2","Filler","num0","55",2,"AOI1","3","1","2","1",1,22,"second_half",1007,1248,1240,1161,1,26
"l2","Filler","num0","49",2,"AOI1","3","1","1","1",1,31,"second_half",1404,1604,1710,802,1,26
"l2","Filler","num25","34",3,"AOI4","3","3","3","4",4,9,"first_half",647,608,4576,1399,1,27
"l2","Filler","num25","49",3,"AOI4","1","3","3","4",4,28,"second_half",1796,1387,821,1110,1,27
"l2","Filler","num25","59",3,"AOI4","1","4","4","4",4,32,"second_half",976,6465,1448,1409,1,27
"l2","Filler","num25","52",3,"AOI4","4","4","4","4",4,17,"second_half",852,1415,1186,544,1,27
"l2","Filler","num25","55",3,"AOI4","1","3","3","4",4,12,"first_half",1039,2152,1952,1856,1,27
"l2","Filler","num25","30",3,"AOI4","1","1","1","4",4,20,"second_half",1200,286,1753,1599,1,27
"l2","Filler","num25","9",3,"AOI4","1","3","3","4",4,11,"first_half",720,1145,1585,923,1,27
"l2","Filler","num25","45",3,"AOI4","1","3","3","4",4,3,"first_half",1755,1122,1772,2252,1,27
"l2","Filler","num25","6",3,"AOI4","1","3","3","4",4,18,"second_half",1586,1461,2178,1584,1,27
"l2","Filler","num25","34",1,"AOI2","1","1","1","2",2,23,"second_half",558,760,3017,1448,1,28
"l2","Filler","num25","30",1,"AOI2","1","1","1","2",2,6,"first_half",2267,1540,2290,1759,1,28
"l2","Filler","num25","9",1,"AOI2","1","1","1","2",2,31,"second_half",808,1121,1274,2074,1,28
"l2","Filler","num25","59",1,"AOI2","1","1","1","2",2,27,"second_half",1136,1032,2352,1488,1,28
"l2","Filler","num25","52",1,"AOI2","1","1","1","2",2,27,"second_half",1374,821,1557,1217,1,28
"l2","Filler","num25","55",1,"AOI2","3","1","1","2",2,28,"second_half",688,1160,2720,1760,1,28
"l2","Filler","num25","45",1,"AOI2","3","1","1","2",2,4,"first_half",1473,1973,3108,1848,1,28
"l2","Filler","num25","6",1,"AOI2","3","1","1","2",2,8,"first_half",1655,2024,2563,1730,1,28
"l2","Filler","num25","49",1,"AOI2","3","2","2","2",2,24,"second_half",3119,2132,1343,632,1,28
"l2","Filler","num75","59",2,"AOI1","1","1","1","1",1,6,"first_half",2936,2842,2855,2545,1,29
"l2","Filler","num75","55",2,"AOI1","3","1","1","1",1,29,"second_half",1007,1240,1448,1120,1,29
"l2","Filler","num75","34",2,"AOI1","1","1","1","1",1,22,"second_half",497,568,2095,1585,1,29
"l2","Filler","num75","6",2,"AOI1","3","1","2","1",1,6,"first_half",1597,1514,2125,3701,1,29
"l2","Filler","num75","9",2,"AOI1","1","1","1","1",1,15,"first_half",1131,582,1754,1219,1,29
"l2","Filler","num75","45",2,"AOI1","1","1","1","1",1,25,"second_half",2014,1347,1950,2135,1,29
"l2","Filler","num75","49",2,"AOI1","3","1","1","1",1,18,"second_half",1052,1232,1581,781,1,29
"l2","Filler","num75","52",2,"AOI1","3","1","1","1",1,25,"second_half",711,878,1407,1193,1,29
"l2","Filler","num75","49",3,"AOI4","3","3","3","4",4,29,"second_half",1067,554,1334,852,1,30
"l2","Filler","num75","45",3,"AOI4","1","3","3","4",4,24,"second_half",1151,1396,2579,3750,1,30
"l2","Filler","num75","59",3,"AOI4","3","3","3","4",4,21,"second_half",992,976,1889,1711,1,30
"l2","Filler","num75","55",3,"AOI4","1","3","3","4",4,1,"first_half",2383,1712,3080,1576,1,30
"l2","Filler","num75","30",3,"AOI4","4","4","4","4",4,21,"second_half",739,788,6469,1207,1,30
"l2","Filler","num75","52",3,"AOI4","3","3","3","4",4,8,"first_half",868,2165,2590,888,1,30
"l2","Filler","num75","6",3,"AOI4","1","3","4","4",4,15,"first_half",1621,1290,2496,1040,1,30
"l2","Filler","num75","9",3,"AOI4","2","3","3","4",4,28,"second_half",965,1499,1115,944,1,30
"l2","Filler","num75","34",3,"AOI4","1","1","3","4",4,6,"first_half",863,960,2888,1328,1,30
"l2","Filler","num100","9",1,"AOI2","1","1","1","2",2,7,"first_half",1202,1464,2685,1921,1,31
"l2","Filler","num100","55",1,"AOI2","1","1","1","2",2,5,"first_half",2016,816,1624,872,1,31
"l2","Filler","num100","6",1,"AOI2","3","1","1","2",2,20,"second_half",1369,1322,955,1095,1,31
"l2","Filler","num100","45",1,"AOI2","3","1","1","2",2,16,"second_half",2737,1578,1985,1271,1,31
"l2","Filler","num100","59",1,"AOI2","1","1","1","2",2,3,"first_half",2024,1553,1512,960,1,31
"l2","Filler","num100","34",1,"AOI2","4","4","1","2",2,12,"first_half",607,1024,1216,816,1,31
"l2","Filler","num100","52",1,"AOI2","3","3","1","2",2,9,"first_half",2356,1177,2114,822,1,31
"l2","Filler","num100","49",1,"AOI2","1","1","1","2",2,19,"second_half",1402,524,1107,921,1,31
"l2","Filler","num100","30",1,"AOI2","2","2","2","2",2,31,"second_half",1897,502,1765,1006,1,31
"l2","Filler","num100","6",4,"AOI3","1","1","3","3",3,23,"second_half",982,713,2883,848,1,32
"l2","Filler","num100","9",4,"AOI3","3","3","3","3",3,17,"second_half",673,640,1978,633,1,32
"l2","Filler","num100","49",4,"AOI3","4","4","4","3",3,30,"second_half",651,879,957,923,1,32
"l2","Filler","num100","59",4,"AOI3","3","3","3","3",3,2,"first_half",2552,3417,2152,880,1,32
"l2","Filler","num100","45",4,"AOI3","1","3","3","3",3,27,"second_half",694,1973,1566,1062,1,32
"l2","Filler","num100","55",4,"AOI3","3","3","3","3",3,31,"second_half",1232,496,1440,592,1,32
"l2","Filler","num100","52",4,"AOI3","2","3","3","3",3,12,"first_half",983,964,1280,648,1,32
"l2","Filler","num100","34",4,"AOI3","3","3","3","3",3,14,"first_half",753,367,2753,783,1,32
"l2","Filler","num100","30",4,"AOI3","1","3","4","3",3,1,"first_half",1709,1313,1570,858,1,32
"l2","Filler","num0","9",1,"AOI2","4","2","2","2",2,6,"first_half",1993,1313,1090,664,1,23
"l2","Filler","num0","55",1,"AOI2","1","1","2","2",2,17,"second_half",999,584,920,368,1,23
"l2","Filler","num0","45",1,"AOI2","3","1","2","2",2,6,"first_half",2575,1433,1816,1022,1,23
"l2","Filler","num0","6",1,"AOI2","3","1","2","2",2,26,"second_half",1602,1413,1564,227,1,23
"l2","Filler","num0","30",1,"AOI2","4","4","2","2",2,22,"second_half",1039,523,3951,321,1,23
"l2","Filler","num0","59",1,"AOI2","1","1","2","2",2,18,"second_half",904,1128,1456,2544,1,23
"l2","Filler","num0","34",1,"AOI2","1","1","2","2",2,1,"first_half",760,439,3616,536,1,23
"l2","Filler","num0","52",1,"AOI2","4","2","2","2",2,18,"second_half",1050,1285,1471,364,1,23
"l2","Filler","num0","49",1,"AOI2","1","1","2","2",2,13,"first_half",1413,1156,1281,375,1,23
"l2","Filler","num100","55",4,"AOI3","2","4","3","3",3,3,"first_half",1152,1608,984,768,1,18
"l2","Filler","num100","59",4,"AOI3","1","1","3","3",3,23,"second_half",1064,705,3281,568,1,18
"l2","Filler","num100","49",4,"AOI3","1","4","3","3",3,15,"first_half",8009,1431,1006,760,1,18
"l2","Filler","num100","6",4,"AOI3","1","3","3","3",3,19,"second_half",2629,1767,1146,625,1,18
"l2","Filler","num100","30",4,"AOI3","1","4","3","3",3,28,"second_half",808,1697,1250,203,1,18
"l2","Filler","num100","9",4,"AOI3","1","1","3","3",3,4,"first_half",1287,657,1770,809,1,18
"l2","Filler","num100","34",4,"AOI3","3","3","3","3",3,28,"second_half",550,792,1960,296,1,18
"l2","Filler","num100","52",4,"AOI3","2","3","3","3",3,22,"second_half",722,1345,1192,640,1,18
"l2","Filler","num100","45",4,"AOI3","3","3","3","3",3,29,"second_half",847,2684,1901,476,1,18
"l2","Filler","num25","59",3,"AOI4","1","3","4","4",4,7,"first_half",2385,2663,1649,888,1,21
"l2","Filler","num25","49",3,"AOI4","4","4","4","4",4,22,"second_half",3076,543,671,574,1,21
"l2","Filler","num25","55",3,"AOI4","3","3","4","4",4,14,"first_half",647,648,2336,400,1,21
"l2","Filler","num25","52",3,"AOI4","1","3","4","4",4,16,"second_half",813,1264,972,479,1,21
"l2","Filler","num25","6",3,"AOI4","1","3","4","4",4,10,"first_half",1669,1509,1765,757,1,21
"l2","Filler","num25","45",3,"AOI4","1","3","4","4",4,1,"first_half",1750,1473,1815,1216,1,21
"l2","Filler","num25","34",3,"AOI4","4","4","4","4",4,7,"first_half",1238,634,2705,414,1,21
"l2","Filler","num25","30",3,"AOI4","3","3","4","4",4,2,"first_half",1374,1103,1278,209,1,21
"l2","Filler","num25","9",3,"AOI4","3","3","4","4",4,23,"second_half",896,960,1162,232,1,21
"l2","Filler","num75","45",2,"AOI1","1","1","1","1",1,26,"second_half",887,815,1090,778,1,19
"l2","Filler","num75","49",2,"AOI1","1","1","1","1",1,12,"first_half",941,1175,1689,542,1,19
"l2","Filler","num75","34",2,"AOI1","1","1","1","1",1,4,"first_half",984,512,1488,343,1,19
"l2","Filler","num75","52",2,"AOI1","1","1","1","1",1,31,"second_half",667,1319,1384,680,1,19
"l2","Filler","num75","59",2,"AOI1","3","1","1","1",1,28,"second_half",1544,1120,1489,440,1,19
"l2","Filler","num75","9",2,"AOI1","1","1","1","1",1,8,"first_half",1249,695,1435,809,1,19
"l2","Filler","num75","30",2,"AOI1","4","4","1","1",1,27,"second_half",949,1047,957,209,1,19
"l2","Filler","num75","55",2,"AOI1","1","1","1","1",1,25,"second_half",760,848,1448,552,1,19
"l2","Filler","num75","6",2,"AOI1","4","2","1","1",1,31,"second_half",945,1297,1052,210,1,19
"l3","Exp","always","32",2,"AOI1","3","1","1","1",1,4,"first_half",1553,1448,1086,998,1,1
"l3","Exp","always","11",2,"AOI1","3","1","1","1",1,22,"second_half",3168,1696,1280,496,1,1
"l3","Exp","always","38",2,"AOI1","3","1","3","1",1,2,"first_half",2039,3735,2129,5254,1,1
"l3","Exp","always","40",2,"AOI1","3","1","1","1",1,27,"second_half",698,1565,373,807,1,1
"l3","Exp","always","47",2,"AOI1","2","2","1","1",1,5,"first_half",3115,917,2004,779,1,1
"l3","Exp","always","51",2,"AOI1","3","2","1","1",1,1,"first_half",1946,2372,2377,846,1,1
"l3","Exp","always","13",2,"AOI1","1","1","1","1",1,21,"second_half",1262,806,1112,420,1,1
"l3","Exp","always","18",2,"AOI1","1","1","1","1",1,32,"second_half",1093,859,4357,555,1,1
"l3","Exp","always","7",2,"AOI1","1","1","1","1",1,9,"first_half",2008,791,1430,522,1,1
"l3","Exp","always","42",2,"AOI1","3","1","1","1",1,21,"second_half",1005,1191,1151,464,1,1
"l3","Exp","always","26",2,"AOI1","3","1","1","1",1,20,"second_half",746,1197,1187,164,1,1
"l3","Exp","always","56",2,"AOI1","4","2","1","1",1,18,"second_half",1071,1415,1274,689,1,1
"l3","Exp","usually","26",1,"AOI2","1","1","2","2",2,21,"second_half",1023,1370,871,1167,1,2
"l3","Exp","usually","42",1,"AOI2","3","1","2","2",2,14,"first_half",3193,1348,1404,437,1,2
"l3","Exp","usually","47",1,"AOI2","4","2","2","2",2,22,"second_half",1675,1961,3332,717,1,2
"l3","Exp","usually","18",1,"AOI2","4","1","1","2",2,6,"first_half",920,1602,1463,1393,1,2
"l3","Exp","usually","38",1,"AOI2","1","1","1","2",2,3,"first_half",3308,1493,1212,3320,1,2
"l3","Exp","usually","40",1,"AOI2","2","2","2","2",2,8,"first_half",1515,529,1651,2093,1,2
"l3","Exp","usually","51",1,"AOI2","4","1","2","2",2,24,"second_half",2351,1323,2464,748,1,2
"l3","Exp","usually","32",1,"AOI2","1","1","2","2",2,25,"second_half",916,877,1046,877,1,2
"l3","Exp","usually","11",1,"AOI2","4","1","2","2",2,13,"first_half",1408,1448,1768,1312,1,2
"l3","Exp","usually","13",1,"AOI2","3","1","2","2",2,29,"second_half",917,1259,1176,228,1,2
"l3","Exp","usually","56",1,"AOI2","2","2","2","2",2,10,"first_half",846,1266,1689,1198,1,2
"l3","Exp","always","51",1,"AOI2","3","1","2","2",2,13,"first_half",1355,1413,1810,747,1,13
"l3","Exp","always","32",1,"AOI2","1","1","2","2",2,16,"second_half",1689,981,1030,691,1,13
"l3","Exp","always","42",1,"AOI2","1","1","2","2",2,22,"second_half",983,568,899,459,1,13
"l3","Exp","always","40",1,"AOI2","4","4","2","2",2,18,"second_half",853,614,1556,446,1,13
"l3","Exp","always","11",1,"AOI2","2","2","2","2",2,3,"first_half",1911,2208,1344,608,1,13
"l3","Exp","always","18",1,"AOI2","1","1","2","2",2,16,"second_half",2894,829,1309,493,1,13
"l3","Exp","always","26",1,"AOI2","2","2","2","2",2,24,"second_half",757,1587,828,502,1,13
"l3","Exp","always","13",1,"AOI2","1","1","2","2",2,31,"second_half",1069,901,1021,205,1,13
"l3","Exp","always","7",1,"AOI2","4","2","2","2",2,2,"first_half",1277,2210,12999,1008,1,13
"l3","Exp","always","56",1,"AOI2","1","1","1","2",2,19,"second_half",829,1178,1818,1324,1,13
"l3","Exp","always","38",1,"AOI2","3","3","3","2",2,8,"first_half",780,488,1282,1276,1,13
"l3","Exp","always","47",1,"AOI2","4","2","2","2",2,29,"second_half",2242,1694,1089,651,1,13
"l3","Exp","never","7",4,"AOI3","3","3","4","3",3,8,"first_half",1390,997,1208,952,1,14
"l3","Exp","never","11",4,"AOI3","2","4","3","3",3,21,"second_half",856,2008,2840,1128,1,14
"l3","Exp","never","13",4,"AOI3","2","3","3","3",3,11,"first_half",2051,1328,974,399,1,14
"l3","Exp","never","56",4,"AOI3","4","3","4","3",3,21,"second_half",1234,1575,1622,1471,1,14
"l3","Exp","never","47",4,"AOI3","2","3","3","3",3,27,"second_half",1374,1976,1211,734,1,14
"l3","Exp","never","26",4,"AOI3","3","3","3","3",3,6,"first_half",1084,1197,1115,471,1,14
"l3","Exp","never","40",4,"AOI3","3","3","3","3",3,1,"first_half",1240,1058,1551,890,1,14
"l3","Exp","never","18",4,"AOI3","1","3","3","3",3,30,"second_half",1627,1664,1712,462,1,14
"l3","Exp","never","38",4,"AOI3","3","3","3","3",3,11,"first_half",1724,736,1590,1947,1,14
"l3","Exp","never","51",4,"AOI3","1","3","3","3",3,6,"first_half",1895,2109,1553,944,1,14
"l3","Exp","never","32",4,"AOI3","2","3","3","3",3,20,"second_half",1142,1705,1004,821,1,14
"l3","Exp","never","42",4,"AOI3","1","3","3","3",3,20,"second_half",1029,2005,1743,699,1,14
"l3","Exp","always","51",3,"AOI4","3","3","4","4",4,3,"first_half",2955,1564,1756,917,1,15
"l3","Exp","always","42",3,"AOI4","1","3","4","4",4,25,"second_half",1223,1649,1807,1005,1,15
"l3","Exp","always","47",3,"AOI4","2","4","4","4",4,23,"second_half",1249,2001,1011,715,1,15
"l3","Exp","always","56",3,"AOI4","1","3","3","4",4,25,"second_half",1503,1365,2582,600,1,15
"l3","Exp","always","13",3,"AOI4","3","3","4","4",4,14,"first_half",1221,708,1554,599,1,15
"l3","Exp","always","40",3,"AOI4","1","3","3","4",4,17,"second_half",817,1012,698,1372,1,15
"l3","Exp","always","11",3,"AOI4","4","4","4","4",4,16,"second_half",1112,1376,1392,520,1,15
"l3","Exp","always","26",3,"AOI4","3","3","4","4",4,13,"first_half",12091,1453,1412,307,1,15
"l3","Exp","always","18",3,"AOI4","3","3","4","4",4,2,"first_half",1770,910,1953,744,1,15
"l3","Exp","always","38",3,"AOI4","1","3","3","4",4,19,"second_half",803,1364,1653,1503,1,15
"l3","Exp","always","32",3,"AOI4","1","3","4","4",4,18,"second_half",2323,1504,1230,813,1,15
"l3","Exp","always","7",3,"AOI4","2","3","3","4",4,16,"second_half",873,1245,570,1097,1,15
"l3","Exp","rarely","42",4,"AOI3","1","3","3","3",3,18,"second_half",1073,1306,1092,989,1,16
"l3","Exp","rarely","51",4,"AOI3","4","4","3","3",3,10,"first_half",2364,1216,1920,859,1,16
"l3","Exp","rarely","38",4,"AOI3","3","3","3","3",3,5,"first_half",1140,656,1816,2176,1,16
"l3","Exp","rarely","56",4,"AOI3","2","4","3","3",3,24,"second_half",3002,1390,2453,395,1,16
"l3","Exp","rarely","13",4,"AOI3","1","1","3","3",3,15,"first_half",1045,872,2503,483,1,16
"l3","Exp","rarely","11",4,"AOI3","1","3","3","3",3,24,"second_half",3120,1488,4408,552,1,16
"l3","Exp","rarely","40",4,"AOI3","4","4","3","3",3,26,"second_half",733,542,2190,494,1,16
"l3","Exp","rarely","47",4,"AOI3","2","3","3","3",3,30,"second_half",1557,2305,2286,821,1,16
"l3","Exp","rarely","18",4,"AOI3","2","4","3","3",3,26,"second_half",3953,1159,1754,713,1,16
"l3","Exp","rarely","26",4,"AOI3","3","3","3","3",3,11,"first_half",809,869,1258,1024,1,16
"l3","Exp","rarely","7",4,"AOI3","4","4","3","3",3,23,"second_half",585,579,1561,242,1,16
"l3","Exp","rarely","32",4,"AOI3","2","3","3","3",3,22,"second_half",1801,1288,997,763,1,16
"l3","Exp","never","47",2,"AOI1","1","1","1","1",1,13,"first_half",1042,752,3336,702,1,3
"l3","Exp","never","32",2,"AOI1","1","1","1","1",1,13,"first_half",1279,974,1199,1118,1,3
"l3","Exp","never","40",2,"AOI1","1","1","1","1",1,6,"first_half",1011,553,963,817,1,3
"l3","Exp","never","42",2,"AOI1","1","1","1","1",1,15,"first_half",1302,1832,882,366,1,3
"l3","Exp","never","56",2,"AOI1","1","1","1","1",1,16,"second_half",1063,1103,1128,473,1,3
"l3","Exp","never","11",2,"AOI1","4","2","1","1",1,31,"second_half",1016,1280,2056,1008,1,3
"l3","Exp","never","7",2,"AOI1","1","1","1","1",1,25,"second_half",644,507,1328,1780,1,3
"l3","Exp","never","26",2,"AOI1","4","1","1","1",1,17,"second_half",859,1667,1566,338,1,3
"l3","Exp","never","51",2,"AOI1","2","2","1","1",1,23,"second_half",3871,2169,2280,888,1,3
"l3","Exp","never","38",2,"AOI1","1","3","1","1",1,1,"first_half",4307,2304,3342,1832,1,3
"l3","Exp","never","18",2,"AOI1","1","1","1","1",1,21,"second_half",1518,798,1531,551,1,3
"l3","Exp","never","13",2,"AOI1","1","1","1","1",1,17,"second_half",1686,1390,1200,569,1,3
"l3","Exp","rarely","47",2,"AOI1","4","2","1","1",1,12,"first_half",1069,2136,2754,656,1,4
"l3","Exp","rarely","18",2,"AOI1","2","2","1","1",1,8,"first_half",2305,1448,2612,1104,1,4
"l3","Exp","rarely","40",2,"AOI1","2","2","1","1",1,16,"second_half",829,650,1625,614,1,4
"l3","Exp","rarely","11",2,"AOI1","1","1","1","1",1,32,"second_half",1224,1112,2328,952,1,4
"l3","Exp","rarely","32",2,"AOI1","4","2","1","1",1,1,"first_half",1398,1335,1649,1093,1,4
"l3","Exp","rarely","7",2,"AOI1","1","1","1","1",1,12,"first_half",1360,1754,1824,1148,1,4
"l3","Exp","rarely","51",2,"AOI1","2","2","1","1",1,20,"second_half",2253,868,1705,889,1,4
"l3","Exp","rarely","26",2,"AOI1","3","1","1","1",1,12,"first_half",12254,1391,1147,563,1,4
"l3","Exp","rarely","13",2,"AOI1","1","1","1","1",1,22,"second_half",971,925,1623,460,1,4
"l3","Exp","rarely","38",2,"AOI1","4","4","1","1",1,20,"second_half",812,1082,3406,334,1,4
"l3","Exp","rarely","56",2,"AOI1","3","1","1","1",1,6,"first_half",1218,1478,1436,569,1,4
"l3","Exp","rarely","42",2,"AOI1","1","1","1","1",1,3,"first_half",1620,845,1892,1484,1,4
"l3","Exp","rarely","32",1,"AOI2","2","2","2","2",2,14,"first_half",1125,1029,1295,1135,1,6
"l3","Exp","rarely","42",1,"AOI2","1","1","2","2",2,29,"second_half",983,746,1096,425,1,6
"l3","Exp","rarely","38",1,"AOI2","4","4","2","2",2,17,"second_half",1110,698,2463,398,1,6
"l3","Exp","rarely","40",1,"AOI2","4","2","2","2",2,15,"first_half",1106,1517,1527,650,1,6
"l3","Exp","rarely","51",1,"AOI2","3","2","2","2",2,17,"second_half",2037,1264,1274,722,1,6
"l3","Exp","rarely","56",1,"AOI2","1","1","1","2",2,9,"first_half",2500,747,1137,1289,1,6
"l3","Exp","rarely","26",1,"AOI2","1","1","2","2",2,27,"second_half",961,1371,871,235,1,6
"l3","Exp","rarely","11",1,"AOI2","1","1","2","2",2,28,"second_half",1912,896,1456,1336,1,6
"l3","Exp","rarely","7",1,"AOI2","3","2","2","2",2,6,"first_half",1377,1828,1631,541,1,6
"l3","Exp","rarely","13",1,"AOI2","3","1","2","2",2,7,"first_half",1228,1149,1709,632,1,6
"l3","Exp","rarely","47",1,"AOI2","1","1","2","2",2,14,"first_half",1118,1174,1944,827,1,6
"l3","Exp","rarely","18",1,"AOI2","3","1","1","2",2,10,"first_half",3035,1467,965,1939,1,6
"l3","Exp","usually","56",3,"AOI4","2","4","4","4",4,11,"first_half",600,2123,2996,437,1,5
"l3","Exp","usually","11",3,"AOI4","1","3","4","4",4,25,"second_half",1728,1080,3843,424,1,5
"l3","Exp","usually","13",3,"AOI4","4","4","4","4",4,25,"second_half",1484,738,1088,540,1,5
"l3","Exp","usually","7",3,"AOI4","1","3","3","4",4,10,"first_half",2564,1809,1889,1992,1,5
"l3","Exp","usually","51",3,"AOI4","2","4","4","4",4,27,"second_half",1527,1386,3263,745,1,5
"l3","Exp","usually","26",3,"AOI4","1","3","3","4",4,28,"second_half",828,1013,790,613,1,5
"l3","Exp","usually","18",3,"AOI4","4","4","4","4",4,19,"second_half",2713,1591,1723,565,1,5
"l3","Exp","usually","42",3,"AOI4","3","3","4","4",4,26,"second_half",1430,687,1231,568,1,5
"l3","Exp","usually","32",3,"AOI4","4","4","4","4",4,9,"first_half",1913,926,1938,902,1,5
"l3","Exp","usually","40",3,"AOI4","2","2","3","4",4,25,"second_half",686,578,1468,1156,1,5
"l3","Exp","usually","38",3,"AOI4","3","3","3","4",4,4,"first_half",2428,2444,1428,3872,1,5
"l3","Exp","usually","47",3,"AOI4","1","3","3","4",4,1,"first_half",2762,2195,2755,1220,1,5
"l3","Exp","usually","32",2,"AOI1","2","2","1","1",1,23,"second_half",1625,1029,1425,747,1,7
"l3","Exp","usually","56",2,"AOI1","1","1","1","1",1,15,"first_half",1183,790,1624,568,1,7
"l3","Exp","usually","42",2,"AOI1","4","1","1","1",1,10,"first_half",2428,1370,604,1037,1,7
"l3","Exp","usually","51",2,"AOI1","1","1","1","1",1,8,"first_half",1374,1185,1931,1544,1,7
"l3","Exp","usually","38",2,"AOI1","1","1","1","1",1,21,"second_half",955,914,1742,454,1,7
"l3","Exp","usually","26",2,"AOI1","1","1","1","1",1,23,"second_half",5185,1044,1044,338,1,7
"l3","Exp","usually","13",2,"AOI1","1","1","1","1",1,12,"first_half",1152,781,1808,719,1,7
"l3","Exp","usually","40",2,"AOI1","3","3","1","1",1,31,"second_half",721,518,1410,542,1,7
"l3","Exp","usually","18",2,"AOI1","3","1","1","1",1,27,"second_half",1480,1468,4540,933,1,7
"l3","Exp","usually","47",2,"AOI1","1","1","1","1",1,31,"second_half",2188,794,3273,1008,1,7
"l3","Exp","usually","11",2,"AOI1","3","1","1","1",1,7,"first_half",1616,1120,1048,1544,1,7
"l3","Exp","usually","7",2,"AOI1","3","1","1","1",1,24,"second_half",1156,1550,689,1240,1,7
"l3","Exp","rarely","42",3,"AOI4","1","3","4","4",4,17,"second_half",1864,1094,1257,1046,1,8
"l3","Exp","rarely","26",3,"AOI4","4","4","4","4",4,8,"first_half",859,819,1186,686,1,8
"l3","Exp","rarely","18",3,"AOI4","3","3","4","4",4,9,"first_half",1401,1825,4276,602,1,8
"l3","Exp","rarely","40",3,"AOI4","1","1","4","4",4,14,"first_half",769,614,1868,373,1,8
"l3","Exp","rarely","11",3,"AOI4","1","1","4","4",4,29,"second_half",976,2576,5832,1008,1,8
"l3","Exp","rarely","51",3,"AOI4","1","3","4","4",4,9,"first_half",2306,1368,2026,889,1,8
"l3","Exp","rarely","32",3,"AOI4","4","4","4","4",4,31,"second_half",1406,925,981,701,1,8
"l3","Exp","rarely","56",3,"AOI4","1","3","4","4",4,27,"second_half",894,1419,1569,423,1,8
"l3","Exp","rarely","13",3,"AOI4","3","3","4","4",4,16,"second_half",802,967,1481,636,1,8
"l3","Exp","rarely","38",3,"AOI4","3","3","3","4",4,10,"first_half",805,440,335,2229,1,8
"l3","Exp","rarely","47",3,"AOI4","4","4","4","4",4,21,"second_half",21217,2419,2271,792,1,8
"l3","Exp","rarely","7",3,"AOI4","3","3","3","4",4,20,"second_half",837,495,1396,991,1,8
"l3","Exp","always","40",4,"AOI3","2","2","3","3",3,30,"second_half",685,529,1578,397,1,9
"l3","Exp","always","11",4,"AOI3","3","3","3","3",3,17,"second_half",1208,960,1192,664,1,9
"l3","Exp","always","38",4,"AOI3","3","3","3","3",3,7,"first_half",1511,556,3044,1278,1,9
"l3","Exp","always","51",4,"AOI3","2","3","3","3",3,29,"second_half",1289,1513,1436,581,1,9
"l3","Exp","always","18",4,"AOI3","3","3","3","3",3,4,"first_half",1214,1942,1230,745,1,9
"l3","Exp","always","42",4,"AOI3","1","3","3","3",3,32,"second_half",1309,1987,644,391,1,9
"l3","Exp","always","13",4,"AOI3","1","3","3","3",3,5,"first_half",1943,1529,1928,704,1,9
"l3","Exp","always","47",4,"AOI3","3","3","3","3",3,16,"second_half",1463,1339,1261,731,1,9
"l3","Exp","always","7",4,"AOI3","3","3","3","3",3,27,"second_half",554,1416,518,1369,1,9
"l3","Exp","always","32",4,"AOI3","4","4","3","3",3,15,"first_half",1848,958,1310,934,1,9
"l3","Exp","always","26",4,"AOI3","2","3","3","3",3,25,"second_half",705,840,1136,349,1,9
"l3","Exp","usually","11",4,"AOI3","2","4","4","3",3,1,"first_half",1303,2616,1272,1416,1,10
"l3","Exp","usually","32",4,"AOI3","4","4","3","3",3,28,"second_half",932,877,1054,813,1,10
"l3","Exp","usually","42",4,"AOI3","1","3","3","3",3,6,"first_half",2079,1437,1220,866,1,10
"l3","Exp","usually","13",4,"AOI3","1","3","3","3",3,28,"second_half",1069,996,1483,216,1,10
"l3","Exp","usually","18",4,"AOI3","1","3","3","3",3,24,"second_half",1056,1963,1098,1721,1,10
"l3","Exp","usually","26",4,"AOI3","1","3","3","3",3,1,"first_half",1348,1115,1241,703,1,10
"l3","Exp","usually","56",4,"AOI3","2","3","3","3",3,32,"second_half",1396,1451,1309,1261,1,10
"l3","Exp","usually","7",4,"AOI3","4","4","4","3",3,17,"second_half",876,228,1367,1079,1,10
"l3","Exp","usually","51",4,"AOI3","3","3","3","3",3,22,"second_half",1465,1012,1764,842,1,10
"l3","Exp","usually","38",4,"AOI3","2","3","3","3",3,31,"second_half",510,1150,784,1135,1,10
"l3","Exp","usually","40",4,"AOI3","2","2","3","3",3,9,"first_half",794,638,1794,521,1,10
"l3","Exp","usually","47",4,"AOI3","2","3","4","3",3,19,"second_half",1131,1927,1898,1921,1,10
"l3","Exp","never","38",1,"AOI2","3","3","1","2",2,29,"second_half",575,482,1813,2109,1,11
"l3","Exp","never","13",1,"AOI2","2","2","2","2",2,26,"second_half",1170,1859,1885,428,1,11
"l3","Exp","never","32",1,"AOI2","3","1","2","2",2,6,"first_half",1222,1271,2396,756,1,11
"l3","Exp","never","11",1,"AOI2","1","1","1","2",2,11,"first_half",1296,1048,5696,1408,1,11
"l3","Exp","never","40",1,"AOI2","4","2","2","2",2,4,"first_half",911,2217,4183,710,1,11
"l3","Exp","never","26",1,"AOI2","1","1","2","2",2,26,"second_half",192588,1012,737,369,1,11
"l3","Exp","never","7",1,"AOI2","2","2","2","2",2,3,"first_half",1689,1117,3088,1264,1,11
"l3","Exp","never","56",1,"AOI2","2","2","2","2",2,13,"first_half",1338,1083,1817,729,1,11
"l3","Exp","never","18",1,"AOI2","1","1","2","2",2,7,"first_half",2307,1733,3556,984,1,11
"l3","Exp","never","47",1,"AOI2","3","1","2","2",2,25,"second_half",2408,1526,1805,785,1,11
"l3","Exp","never","51",1,"AOI2","1","1","2","2",2,21,"second_half",2241,1334,2157,762,1,11
"l3","Exp","never","42",1,"AOI2","3","1","2","2",2,27,"second_half",1247,1303,1276,529,1,11
"l3","Exp","never","40",3,"AOI4","1","1","4","4",4,32,"second_half",698,553,1844,517,1,12
"l3","Exp","never","18",3,"AOI4","3","3","4","4",4,17,"second_half",2798,1031,1402,942,1,12
"l3","Exp","never","47",3,"AOI4","3","3","4","4",4,20,"second_half",1013,1496,4949,670,1,12
"l3","Exp","never","26",3,"AOI4","3","3","4","4",4,19,"second_half",706,655,971,288,1,12
"l3","Exp","never","42",3,"AOI4","1","3","4","4",4,28,"second_half",1152,1675,1557,418,1,12
"l3","Exp","never","51",3,"AOI4","2","3","4","4",4,4,"first_half",1982,1775,1793,1070,1,12
"l3","Exp","never","56",3,"AOI4","1","3","3","4",4,7,"first_half",1314,1364,2807,3671,1,12
"l3","Exp","never","11",3,"AOI4","4","4","4","4",4,30,"second_half",1360,1248,2024,592,1,12
"l3","Exp","never","38",3,"AOI4","1","1","3","4",4,6,"first_half",1689,1350,1940,2060,1,12
"l3","Exp","never","13",3,"AOI4","2","3","4","4",4,4,"first_half",1453,1157,1326,381,1,12
"l3","Exp","never","7",3,"AOI4","1","3","4","4",4,14,"first_half",3526,1101,1735,310,1,12
"l3","Exp","never","32",3,"AOI4","1","4","4","4",4,8,"first_half",1463,1552,1014,780,1,12
"l3","Filler","num75","51",1,"AOI2","4","1","2","2",2,14,"first_half",2163,1692,1574,574,1,20
"l3","Filler","num75","32",1,"AOI2","3","2","2","2",2,27,"second_half",1454,1272,1207,731,1,20
"l3","Filler","num75","40",1,"AOI2","1","1","2","2",2,29,"second_half",758,553,1373,373,1,20
"l3","Filler","num75","47",1,"AOI2","4","2","2","2",2,24,"second_half",8801,1685,1421,609,1,20
"l3","Filler","num75","18",1,"AOI2","3","1","2","2",2,18,"second_half",1763,1464,2256,723,1,20
"l3","Filler","num75","38",1,"AOI2","3","3","3","2",2,12,"first_half",608,470,1294,5262,1,20
"l3","Filler","num75","11",1,"AOI2","1","1","2","2",2,19,"second_half",1768,1040,1152,984,1,20
"l3","Filler","num75","42",1,"AOI2","1","1","2","2",2,5,"first_half",1942,638,1481,466,1,20
"l3","Filler","num75","7",1,"AOI2","1","1","1","2",2,13,"first_half",1983,1452,960,910,1,20
"l3","Filler","num75","13",1,"AOI2","3","1","2","2",2,18,"second_half",1170,1280,1119,558,1,20
"l3","Filler","num75","26",1,"AOI2","1","1","2","2",2,31,"second_half",21491,932,757,287,1,20
"l3","Filler","num75","56",1,"AOI2","4","2","2","2",2,12,"first_half",626,1485,1681,989,1,20
"l3","Filler","num25","40",4,"AOI3","3","3","3","3",3,10,"first_half",827,650,1660,445,1,22
"l3","Filler","num25","26",4,"AOI3","1","3","3","3",3,32,"second_half",706,869,1168,644,1,22
"l3","Filler","num25","56",4,"AOI3","1","3","3","3",3,4,"first_half",1647,1329,1619,601,1,22
"l3","Filler","num25","13",4,"AOI3","3","3","3","3",3,9,"first_half",946,985,1689,700,1,22
"l3","Filler","num25","51",4,"AOI3","3","3","3","3",3,16,"second_half",2088,1223,1591,760,1,22
"l3","Filler","num25","18",4,"AOI3","1","3","3","3",3,1,"first_half",3584,1950,1368,1427,1,22
"l3","Filler","num25","7",4,"AOI3","1","3","3","3",3,5,"first_half",1256,1520,2094,564,1,22
"l3","Filler","num25","47",4,"AOI3","1","3","3","3",3,15,"first_half",1652,1452,1405,930,1,22
"l3","Filler","num25","11",4,"AOI3","1","3","3","3",3,23,"second_half",1552,1656,1264,648,1,22
"l3","Filler","num25","42",4,"AOI3","1","1","3","3",3,12,"first_half",1124,1095,5085,412,1,22
"l3","Filler","num25","32",4,"AOI3","2","3","3","3",3,5,"first_half",2163,1197,1183,739,1,22
"l3","Filler","num0","26",2,"AOI1","3","1","1","1",1,30,"second_half",686,788,962,399,1,24
"l3","Filler","num0","32",2,"AOI1","3","1","1","1",1,26,"second_half",948,1248,1150,893,1,24
"l3","Filler","num0","47",2,"AOI1","1","1","1","1",1,3,"first_half",2951,1509,2324,977,1,24
"l3","Filler","num0","13",2,"AOI1","3","2","1","1",1,23,"second_half",899,1545,1395,320,1,24
"l3","Filler","num0","11",2,"AOI1","3","1","1","1",1,12,"first_half",1440,992,6224,1672,1,24
"l3","Filler","num0","7",2,"AOI1","4","1","1","1",1,32,"second_half",695,1662,1291,402,1,24
"l3","Filler","num0","40",2,"AOI1","2","2","1","1",1,5,"first_half",1275,626,1769,493,1,24
"l3","Filler","num0","38",2,"AOI1","3","1","1","1",1,18,"second_half",1534,1216,910,552,1,24
"l3","Filler","num0","56",2,"AOI1","1","1","1","1",1,1,"first_half",1540,764,1170,1299,1,24
"l3","Filler","num0","18",2,"AOI1","3","1","1","1",1,14,"first_half",1098,2487,1688,971,1,24
"l3","Filler","num0","42",2,"AOI1","1","1","1","1",1,1,"first_half",1198,1740,1560,648,1,24
"l3","Filler","num0","51",2,"AOI1","3","1","1","1",1,30,"second_half",1338,1588,1538,687,1,24
"l3","Filler","num100","56",3,"AOI4","2","4","4","4",4,29,"second_half",916,1470,1153,536,1,17
"l3","Filler","num100","40",3,"AOI4","3","3","4","4",4,20,"second_half",697,565,1494,1504,1,17
"l3","Filler","num100","13",3,"AOI4","3","3","4","4",4,32,"second_half",4366,1414,885,209,1,17
"l3","Filler","num100","42",3,"AOI4","4","4","4","4",4,31,"second_half",917,497,686,572,1,17
"l3","Filler","num100","7",3,"AOI4","3","3","4","4",4,18,"second_half",719,948,1306,371,1,17
"l3","Filler","num100","47",3,"AOI4","3","3","4","4",4,28,"second_half",1108,1043,1808,1016,1,17
"l3","Filler","num100","38",3,"AOI4","1","1","4","4",4,25,"second_half",612,726,2022,354,1,17
"l3","Filler","num100","51",3,"AOI4","1","3","4","4",4,19,"second_half",2009,1316,2050,576,1,17
"l3","Filler","num100","11",3,"AOI4","3","3","4","4",4,26,"second_half",2432,912,1376,792,1,17
"l3","Filler","num100","32",3,"AOI4","3","3","4","4",4,7,"first_half",1262,861,1038,683,1,17
"l3","Filler","num100","26",3,"AOI4","3","3","4","4",4,14,"first_half",828,778,829,307,1,17
"l3","Filler","num100","18",3,"AOI4","3","3","4","4",4,15,"first_half",1386,580,1314,834,1,17
"l3","Filler","num0","56",4,"AOI3","2","4","4","3",3,3,"first_half",1207,2072,998,1300,1,25
"l3","Filler","num0","32",4,"AOI3","1","4","4","3",3,29,"second_half",1173,1834,1175,918,1,25
"l3","Filler","num0","38",4,"AOI3","3","3","3","3",3,28,"second_half",689,648,1663,1129,1,25
"l3","Filler","num0","18",4,"AOI3","1","3","3","3",3,28,"second_half",1824,1478,1652,1904,1,25
"l3","Filler","num0","7",4,"AOI3","1","1","3","3",3,7,"first_half",1228,1031,1403,438,1,25
"l3","Filler","num0","51",4,"AOI3","1","3","3","3",3,32,"second_half",2229,1330,2219,2332,1,25
"l3","Filler","num0","42",4,"AOI3","1","3","3","3",3,8,"first_half",2035,1264,1142,1009,1,25
"l3","Filler","num0","26",4,"AOI3","3","3","3","3",3,4,"first_half",982,301147,1975,920,1,25
"l3","Filler","num0","11",4,"AOI3","4","4","4","3",3,27,"second_half",2128,1720,1232,1160,1,25
"l3","Filler","num0","47",4,"AOI3","3","3","4","3",3,8,"first_half",2552,778,2465,1435,1,25
"l3","Filler","num0","40",4,"AOI3","4","4","4","3",3,21,"second_half",770,601,1503,1481,1,25
"l3","Filler","num0","13",2,"AOI1","1","1","1","1",1,13,"first_half",784,1061,1466,1971,1,26
"l3","Filler","num0","32",2,"AOI1","3","2","2","1",1,24,"second_half",1327,1343,1199,1254,1,26
"l3","Filler","num0","51",2,"AOI1","4","1","1","1",1,7,"first_half",2506,2019,1872,1552,1,26
"l3","Filler","num0","47",2,"AOI1","4","4","1","1",1,2,"first_half",2267,829,2445,682,1,26
"l3","Filler","num0","56",2,"AOI1","4","2","2","1",1,26,"second_half",934,1502,1421,1151,1,26
"l3","Filler","num0","40",2,"AOI1","3","3","1","1",1,13,"first_half",697,902,1627,1154,1,26
"l3","Filler","num0","38",2,"AOI1","3","3","1","1",1,32,"second_half",548,488,1265,956,1,26
"l3","Filler","num0","26",2,"AOI1","3","1","1","1",1,29,"second_half",818,818,768,1115,1,26
"l3","Filler","num0","11",2,"AOI1","2","2","2","1",1,14,"first_half",3536,1304,1328,1376,1,26
"l3","Filler","num0","18",2,"AOI1","1","1","1","1",1,11,"first_half",1377,833,2347,1874,1,26
"l3","Filler","num0","42",2,"AOI1","1","1","1","1",1,16,"second_half",2108,1054,1084,1603,1,26
"l3","Filler","num25","40",3,"AOI4","3","3","3","4",4,2,"first_half",1130,794,2347,1756,1,27
"l3","Filler","num25","47",3,"AOI4","4","4","4","4",4,11,"first_half",1854,923,3377,870,1,27
"l3","Filler","num25","51",3,"AOI4","2","3","3","4",4,2,"first_half",3386,1504,3649,1328,1,27
"l3","Filler","num25","32",3,"AOI4","4","4","4","4",4,3,"first_half",2100,988,1825,1440,1,27
"l3","Filler","num25","38",3,"AOI4","4","4","4","4",4,26,"second_half",1142,673,1557,1047,1,27
"l3","Filler","num25","7",3,"AOI4","1","1","3","4",4,29,"second_half",1185,587,907,1300,1,27
"l3","Filler","num25","13",3,"AOI4","1","3","3","4",4,10,"first_half",1156,1570,6036,1628,1,27
"l3","Filler","num25","56",3,"AOI4","4","4","4","4",4,31,"second_half",844,1096,1478,1405,1,27
"l3","Filler","num25","18",3,"AOI4","3","3","3","4",4,5,"first_half",1401,831,2125,1536,1,27
"l3","Filler","num25","42",3,"AOI4","1","3","3","4",4,30,"second_half",1484,3483,1064,1102,1,27
"l3","Filler","num25","26",3,"AOI4","3","3","3","4",4,16,"second_half",2404,1750,614,1075,1,27
"l3","Filler","num25","13",1,"AOI2","1","1","1","2",2,20,"second_half",2084,903,2102,2965,1,28
"l3","Filler","num25","7",1,"AOI2","4","2","2","2",2,30,"second_half",609,1535,1535,958,1,28
"l3","Filler","num25","51",1,"AOI2","1","1","1","2",2,12,"first_half",1641,1046,1935,4411,1,28
"l3","Filler","num25","40",1,"AOI2","3","3","1","2",2,11,"first_half",781,878,2528,1495,1,28
"l3","Filler","num25","42",1,"AOI2","3","1","1","2",2,24,"second_half",2550,1515,841,1846,1,28
"l3","Filler","num25","26",1,"AOI2","3","1","1","2",2,15,"first_half",798,757,1616,1034,1,28
"l3","Filler","num25","32",1,"AOI2","2","2","2","2",2,10,"first_half",1591,844,1569,1359,1,28
"l3","Filler","num25","18",1,"AOI2","3","1","1","2",2,25,"second_half",2093,1569,1653,1544,1,28
"l3","Filler","num25","11",1,"AOI2","1","1","1","2",2,10,"first_half",1120,928,1512,1816,1,28
"l3","Filler","num25","56",1,"AOI2","1","1","1","2",2,22,"second_half",1113,1080,1713,1436,1,28
"l3","Filler","num25","47",1,"AOI2","3","1","1","2",2,18,"second_half",1556,2427,1964,1221,1,28
"l3","Filler","num25","38",1,"AOI2","2","2","2","2",2,30,"second_half",649,620,1396,1230,1,28
"l3","Filler","num75","26",2,"AOI1","3","1","1","1",1,18,"second_half",7880,1544,1014,880,1,29
"l3","Filler","num75","38",2,"AOI1","1","1","1","1",1,22,"second_half",1125,757,1926,1248,1,29
"l3","Filler","num75","51",2,"AOI1","3","1","1","1",1,25,"second_half",2433,1223,2780,1159,1,29
"l3","Filler","num75","56",2,"AOI1","1","1","1","1",1,17,"second_half",950,926,1177,453,1,29
"l3","Filler","num75","11",2,"AOI1","1","1","1","1",1,8,"first_half",936,984,1296,1368,1,29
"l3","Filler","num75","47",2,"AOI1","1","1","1","1",1,32,"second_half",1025,810,2321,764,1,29
"l3","Filler","num75","42",2,"AOI1","1","1","1","1",1,11,"first_half",1305,634,1396,1420,1,29
"l3","Filler","num75","32",2,"AOI1","2","2","2","1",1,17,"second_half",1038,1142,1610,1487,1,29
"l3","Filler","num75","18",2,"AOI1","2","2","2","1",1,23,"second_half",1187,869,5426,1976,1,29
"l3","Filler","num75","40",2,"AOI1","1","1","1","1",1,28,"second_half",685,542,1336,985,1,29
"l3","Filler","num75","7",2,"AOI1","4","2","1","1",1,11,"first_half",1200,1286,1624,1799,1,29
"l3","Filler","num75","13",2,"AOI1","1","1","1","1",1,2,"first_half",1521,1232,2370,766,1,29
"l3","Filler","num75","38",3,"AOI4","2","3","3","4",4,9,"first_half",679,1416,2906,1434,1,30
"l3","Filler","num75","47",3,"AOI4","4","4","4","4",4,10,"first_half",937,2,4591,807,1,30
"l3","Filler","num75","40",3,"AOI4","4","4","4","4",4,3,"first_half",937,758,2755,1336,1,30
"l3","Filler","num75","11",3,"AOI4","2","3","3","4",4,18,"second_half",1440,1432,1432,1528,1,30
"l3","Filler","num75","51",3,"AOI4","3","3","3","4",4,5,"first_half",1615,1519,4226,1366,1,30
"l3","Filler","num75","26",3,"AOI4","3","3","3","4",4,9,"first_half",5052,696,1341,808,1,30
"l3","Filler","num75","13",3,"AOI4","1","3","3","4",4,27,"second_half",2637,1195,1201,1404,1,30
"l3","Filler","num75","32",3,"AOI4","4","4","4","4",4,12,"first_half",1326,949,1393,1446,1,30
"l3","Filler","num75","42",3,"AOI4","1","3","3","4",4,19,"second_half",1133,3297,1262,1655,1,30
"l3","Filler","num75","7",3,"AOI4","2","2","3","4",4,31,"second_half",826,442,1508,1069,1,30
"l3","Filler","num75","56",3,"AOI4","2","4","4","4",4,20,"second_half",1136,1703,2429,1267,1,30
"l3","Filler","num100","47",1,"AOI2","2","2","2","2",2,26,"second_half",1223,987,1454,860,1,31
"l3","Filler","num100","56",1,"AOI2","3","1","1","2",2,28,"second_half",1508,1066,2531,1269,1,31
"l3","Filler","num100","32",1,"AOI2","3","2","2","2",2,30,"second_half",916,1206,918,853,1,31
"l3","Filler","num100","11",1,"AOI2","2","2","2","2",2,20,"second_half",2456,3248,896,1008,1,31
"l3","Filler","num100","40",1,"AOI2","1","1","1","2",2,7,"first_half",721,902,1575,1036,1,31
"l3","Filler","num100","51",1,"AOI2","2","2","2","2",2,15,"first_half",1505,1458,1864,1034,1,31
"l3","Filler","num100","38",1,"AOI2","1","1","1","2",2,23,"second_half",563,519,977,1727,1,31
"l3","Filler","num100","42",1,"AOI2","3","1","1","2",2,7,"first_half",2444,1123,932,671,1,31
"l3","Filler","num100","18",1,"AOI2","1","1","1","2",2,31,"second_half",1720,688,1178,1247,1,31
"l3","Filler","num100","13",1,"AOI2","3","1","1","2",2,19,"second_half",1473,1130,920,1299,1,31
"l3","Filler","num100","26",1,"AOI2","2","3","1","2",2,22,"second_half",890,961,1668,665,1,31
"l3","Filler","num100","7",1,"AOI2","4","2","2","2",2,15,"first_half",894,1203,1235,776,1,31
"l3","Filler","num100","51",4,"AOI3","1","3","3","3",3,26,"second_half",1137,1596,1762,984,1,32
"l3","Filler","num100","38",4,"AOI3","4","4","4","3",3,27,"second_half",857,832,733,926,1,32
"l3","Filler","num100","40",4,"AOI3","2","2","4","3",3,12,"first_half",709,542,1673,1024,1,32
"l3","Filler","num100","32",4,"AOI3","1","3","3","3",3,11,"first_half",1174,1239,1157,990,1,32
"l3","Filler","num100","47",4,"AOI3","3","3","3","3",3,17,"second_half",1074,2513,1366,842,1,32
"l3","Filler","num100","11",4,"AOI3","1","3","3","3",3,2,"first_half",2863,1824,1784,792,1,32
"l3","Filler","num100","13",4,"AOI3","1","3","3","3",3,8,"first_half",1102,1566,919,1116,1,32
"l3","Filler","num100","56",4,"AOI3","2","4","4","3",3,14,"first_half",1091,1501,1276,1152,1,32
"l3","Filler","num100","26",4,"AOI3","1","3","3","3",3,10,"first_half",11467,646,2066,860,1,32
"l3","Filler","num100","7",4,"AOI3","3","3","3","3",3,19,"second_half",1734,607,784,426,1,32
"l3","Filler","num100","42",4,"AOI3","1","3","3","3",3,4,"first_half",1230,2435,811,698,1,32
"l3","Filler","num100","18",4,"AOI3","3","3","3","3",3,13,"first_half",1197,996,1736,897,1,32
"l3","Filler","num0","56",1,"AOI2","1","1","2","2",2,2,"first_half",1111,812,3881,820,1,23
"l3","Filler","num0","18",1,"AOI2","1","1","2","2",2,22,"second_half",2035,777,1378,552,1,23
"l3","Filler","num0","32",1,"AOI2","4","1","2","2",2,19,"second_half",1133,1415,1536,982,1,23
"l3","Filler","num0","7",1,"AOI2","4","2","2","2",2,21,"second_half",649,1340,1109,290,1,23
"l3","Filler","num0","47",1,"AOI2","1","1","2","2",2,4,"first_half",2205,455,2040,1025,1,23
"l3","Filler","num0","13",1,"AOI2","1","1","2","2",2,3,"first_half",1153,983,1489,584,1,23
"l3","Filler","num0","26",1,"AOI2","3","1","2","2",2,7,"first_half",860,849,952,307,1,23
"l3","Filler","num0","38",1,"AOI2","2","2","2","2",2,13,"first_half",1455,640,2865,505,1,23
"l3","Filler","num0","42",1,"AOI2","1","1","2","2",2,13,"first_half",1128,985,1048,380,1,23
"l3","Filler","num0","51",1,"AOI2","2","2","2","2",2,28,"second_half",1583,1042,2052,779,1,23
"l3","Filler","num0","11",1,"AOI2","4","2","2","2",2,6,"first_half",3319,1262,1760,544,1,23
"l3","Filler","num0","40",1,"AOI2","4","4","2","2",2,24,"second_half",661,601,2071,758,1,23
"l3","Filler","num100","11",4,"AOI3","1","3","3","3",3,5,"first_half",6303,1488,1120,832,1,18
"l3","Filler","num100","47",4,"AOI3","1","3","3","3",3,7,"first_half",8832,1496,3352,641,1,18
"l3","Filler","num100","7",4,"AOI3","1","1","3","3",3,26,"second_half",588,507,1180,297,1,18
"l3","Filler","num100","56",4,"AOI3","3","3","3","3",3,5,"first_half",1623,674,1200,699,1,18
"l3","Filler","num100","42",4,"AOI3","1","3","3","3",3,23,"second_half",876,1588,882,501,1,18
"l3","Filler","num100","13",4,"AOI3","1","3","3","3",3,1,"first_half",1063,3785,1342,459,1,18
"l3","Filler","num100","51",4,"AOI3","2","2","3","3",3,11,"first_half",1447,1079,2438,653,1,18
"l3","Filler","num100","32",4,"AOI3","1","3","3","3",3,2,"first_half",2074,1399,1231,997,1,18
"l3","Filler","num100","26",4,"AOI3","3","3","3","3",3,2,"first_half",1043,974,890,736,1,18
"l3","Filler","num100","40",4,"AOI3","2","2","3","3",3,19,"second_half",637,639,1446,541,1,18
"l3","Filler","num100","18",4,"AOI3","1","3","3","3",3,12,"first_half",1088,1299,1430,588,1,18
"l3","Filler","num25","18",3,"AOI4","3","3","4","4",4,3,"first_half",1429,871,1370,737,1,21
"l3","Filler","num25","26",3,"AOI4","3","3","4","4",4,3,"first_half",910,1361,798,522,1,21
"l3","Filler","num25","42",3,"AOI4","3","3","4","4",4,9,"first_half",1545,1156,1089,346,1,21
"l3","Filler","num25","11",3,"AOI4","2","4","4","4",4,15,"first_half",1831,1456,2103,704,1,21
"l3","Filler","num25","38",3,"AOI4","1","1","4","4",4,16,"second_half",1093,306,6442,348,1,21
"l3","Filler","num25","51",3,"AOI4","4","4","4","4",4,31,"second_half",2560,1026,1731,530,1,21
"l3","Filler","num25","7",3,"AOI4","2","4","4","4",4,22,"second_half",746,1384,814,1056,1,21
"l3","Filler","num25","32",3,"AOI4","1","3","4","4",4,32,"second_half",1728,1071,892,684,1,21
"l3","Filler","num25","40",3,"AOI4","1","1","4","4",4,23,"second_half",637,590,1422,541,1,21
"l3","Filler","num25","56",3,"AOI4","1","3","4","4",4,30,"second_half",1063,1419,1080,635,1,21
"l3","Filler","num25","47",3,"AOI4","3","3","4","4",4,9,"first_half",31066,1367,2145,722,1,21
"l3","Filler","num25","13",3,"AOI4","1","4","4","4",4,30,"second_half",1958,1938,881,230,1,21
"l3","Filler","num75","40",2,"AOI1","3","3","1","1",1,22,"second_half",770,517,1688,504,1,19
"l3","Filler","num75","18",2,"AOI1","3","1","1","1",1,29,"second_half",932,1341,1171,735,1,19
"l3","Filler","num75","11",2,"AOI1","2","2","1","1",1,9,"first_half",1088,944,1368,1208,1,19
"l3","Filler","num75","56",2,"AOI1","4","2","1","1",1,8,"first_half",811,1193,1292,454,1,19
"l3","Filler","num75","13",2,"AOI1","2","2","1","1",1,6,"first_half",1830,934,1252,702,1,19
"l3","Filler","num75","26",2,"AOI1","3","1","1","1",1,5,"first_half",1483,1270,879,430,1,19
"l3","Filler","num75","7",2,"AOI1","2","2","1","1",1,4,"first_half",1892,1074,1752,857,1,19
"l3","Filler","num75","42",2,"AOI1","1","1","1","1",1,2,"first_half",3258,879,1600,556,1,19
"l3","Filler","num75","38",2,"AOI1","1","1","1","1",1,24,"second_half",821,620,949,1003,1,19
"l3","Filler","num75","51",2,"AOI1","1","1","1","1",1,18,"second_half",1277,1138,1530,732,1,19
"l3","Filler","num75","47",2,"AOI1","1","1","1","1",1,6,"first_half",1118,1013,2226,919,1,19
"l3","Filler","num75","32",2,"AOI1","3","1","1","1",1,21,"second_half",868,1545,1327,934,1,19
"l4","Exp","rarely","19",1,"AOI2","3","1","2","2",2,9,"first_half",1398,1772,1386,778,1,2
"l4","Exp","rarely","8",1,"AOI2","1","1","1","2",2,22,"second_half",975,627,919,1173,1,2
"l4","Exp","rarely","36",1,"AOI2","3","3","2","2",2,6,"first_half",1061,5074,4365,714,1,2
"l4","Exp","rarely","48",1,"AOI2","2","2","2","2",2,5,"first_half",1392,1135,2268,899,1,2
"l4","Exp","rarely","16",1,"AOI2","2","2","2","2",2,28,"second_half",1210,1030,997,593,1,2
"l4","Exp","rarely","41",1,"AOI2","3","1","2","2",2,16,"second_half",892,1424,1530,1790,1,2
"l4","Exp","rarely","58",1,"AOI2","3","2","2","2",2,32,"second_half",756,1466,1658,472,1,2
"l4","Exp","rarely","25",1,"AOI2","1","1","2","2",2,7,"first_half",2996,1172,1676,528,1,2
"l4","Exp","rarely","57",1,"AOI2","3","1","2","2",2,13,"first_half",745,1337,1683,604,1,2
"l4","Exp","rarely","29",1,"AOI2","4","1","2","2",2,12,"first_half",624,1271,1432,689,1,2
"l4","Exp","usually","29",2,"AOI1","1","1","1","1",1,23,"second_half",744,631,1345,447,1,1
"l4","Exp","usually","57",2,"AOI1","1","1","1","1",1,27,"second_half",1180,1115,1764,597,1,1
"l4","Exp","usually","41",2,"AOI1","1","1","1","1",1,27,"second_half",1170,703,1363,1268,1,1
"l4","Exp","usually","8",2,"AOI1","1","1","1","1",1,25,"second_half",1594,841,912,1117,1,1
"l4","Exp","usually","16",2,"AOI1","3","2","2","1",1,26,"second_half",854,1308,731,963,1,1
"l4","Exp","usually","48",2,"AOI1","1","1","1","1",1,30,"second_half",2113,872,1635,686,1,1
"l4","Exp","usually","25",2,"AOI1","1","1","1","1",1,13,"first_half",999,378,801,709,1,1
"l4","Exp","usually","60",2,"AOI1","4","1","1","1",1,15,"first_half",738,1335,871,833,1,1
"l4","Exp","usually","58",2,"AOI1","2","2","1","1",1,29,"second_half",1039,1331,1201,332,1,1
"l4","Exp","usually","19",2,"AOI1","3","1","1","1",1,15,"first_half",1151,1138,1590,1521,1,1
"l4","Exp","always","25",4,"AOI3","4","4","3","3",3,1,"first_half",2062,1012,1450,534,1,14
"l4","Exp","always","60",4,"AOI3","1","1","1","3",3,29,"second_half",819,300,986,1403,1,14
"l4","Exp","always","19",4,"AOI3","1","3","3","3",3,16,"second_half",1210,1370,1391,423,1,14
"l4","Exp","always","8",4,"AOI3","1","3","3","3",3,23,"second_half",1325,927,761,1086,1,14
"l4","Exp","always","41",4,"AOI3","2","4","3","3",3,20,"second_half",868,1692,2344,750,1,14
"l4","Exp","always","36",4,"AOI3","3","3","3","3",3,12,"first_half",857,1580,1515,505,1,14
"l4","Exp","always","29",4,"AOI3","3","3","3","3",3,26,"second_half",1159,472,617,439,1,14
"l4","Exp","always","58",4,"AOI3","3","3","3","3",3,7,"first_half",1315,945,1162,511,1,14
"l4","Exp","always","57",4,"AOI3","3","3","3","3",3,21,"second_half",1142,799,2650,440,1,14
"l4","Exp","always","16",4,"AOI3","2","4","4","3",3,16,"second_half",1711,1402,653,1243,1,14
"l4","Exp","always","48",4,"AOI3","4","4","3","3",3,15,"first_half",2287,1296,1094,669,1,14
"l4","Exp","usually","57",1,"AOI2","1","1","1","2",2,1,"first_half",8752,1537,1838,1552,1,13
"l4","Exp","usually","60",1,"AOI2","1","1","1","2",2,2,"first_half",1225,528,1046,1287,1,13
"l4","Exp","usually","25",1,"AOI2","2","2","2","2",2,27,"second_half",858,453,543,689,1,13
"l4","Exp","usually","48",1,"AOI2","3","1","2","2",2,21,"second_half",1778,1175,1754,1241,1,13
"l4","Exp","usually","16",1,"AOI2","1","1","2","2",2,12,"first_half",1243,667,1351,872,1,13
"l4","Exp","usually","36",1,"AOI2","3","1","1","2",2,29,"second_half",1106,1146,1219,1058,1,13
"l4","Exp","usually","8",1,"AOI2","3","1","1","2",2,19,"second_half",1253,1268,872,1054,1,13
"l4","Exp","usually","58",1,"AOI2","4","2","2","2",2,21,"second_half",913,1635,4214,1049,1,13
"l4","Exp","usually","19",1,"AOI2","1","1","2","2",2,17,"second_half",1087,659,1159,478,1,13
"l4","Exp","usually","29",1,"AOI2","3","1","1","2",2,6,"first_half",951,1624,1200,856,1,13
"l4","Exp","usually","41",1,"AOI2","2","2","2","2",2,12,"first_half",769,2517,1364,990,1,13
"l4","Exp","usually","19",3,"AOI4","3","3","4","4",4,27,"second_half",828,1073,1346,617,1,15
"l4","Exp","usually","8",3,"AOI4","1","4","4","4",4,5,"first_half",983,1339,1413,1711,1,15
"l4","Exp","usually","58",3,"AOI4","3","3","4","4",4,16,"second_half",917,1118,1498,921,1,15
"l4","Exp","usually","48",3,"AOI4","1","3","4","4",4,14,"first_half",885,1344,1707,722,1,15
"l4","Exp","usually","36",3,"AOI4","1","3","3","4",4,18,"second_half",1049,1287,754,906,1,15
"l4","Exp","usually","57",3,"AOI4","1","4","4","4",4,25,"second_half",949,1594,722,522,1,15
"l4","Exp","usually","60",3,"AOI4","2","2","4","4",4,12,"first_half",1482,454,1965,978,1,15
"l4","Exp","usually","29",3,"AOI4","2","3","4","4",4,7,"first_half",1487,1017,1263,464,1,15
"l4","Exp","usually","16",3,"AOI4","4","4","4","4",4,22,"second_half",625,1662,2691,727,1,15
"l4","Exp","usually","41",3,"AOI4","1","3","4","4",4,8,"first_half",1228,1889,3605,983,1,15
"l4","Exp","usually","25",3,"AOI4","1","1","4","4",4,30,"second_half",832,427,1063,127,1,15
"l4","Exp","never","60",4,"AOI3","4","4","3","3",3,18,"second_half",907,442,1392,408,1,16
"l4","Exp","never","36",4,"AOI3","2","3","3","3",3,15,"first_half",1515,1266,1439,1354,1,16
"l4","Exp","never","8",4,"AOI3","3","3","3","3",3,28,"second_half",1442,857,967,896,1,16
"l4","Exp","never","57",4,"AOI3","3","3","3","3",3,19,"second_half",1466,655,1473,465,1,16
"l4","Exp","never","16",4,"AOI3","4","4","3","3",3,5,"first_half",3067,1016,1796,1054,1,16
"l4","Exp","never","29",4,"AOI3","3","3","3","3",3,5,"first_half",1848,1129,1103,529,1,16
"l4","Exp","never","25",4,"AOI3","3","3","3","3",3,23,"second_half",752,760,690,613,1,16
"l4","Exp","never","58",4,"AOI3","3","4","3","3",3,14,"first_half",771,1261,1512,479,1,16
"l4","Exp","never","41",4,"AOI3","1","3","3","3",3,32,"second_half",1092,1429,1147,768,1,16
"l4","Exp","never","48",4,"AOI3","4","4","3","3",3,18,"second_half",1498,1425,1138,1362,1,16
