"workerid","list","ExpFiller","competitor","displayID","condition","click1","click2","click3","click4","target","trial_order","trial_group","RT1","RT2","RT3","RT4","selection_correct"
"74","list4","Filler","3",11,"five","1","3","4","4","4",1,"first_half",1720,1585,2057,828,1
"74","list4","Filler","1",28,"two","4","2","2","2","2",2,"first_half",4041,4006,3042,1586,1
"74","list4","Exp","2",18,"all","2","2","1","1","1",3,"first_half",1948,1106,2921,1036,1
"74","list4","Exp","1",14,"all","3","1","2","2","2",4,"first_half",2264,1364,4206,999,1
"74","list4","Exp","2",6,"none","2","2","1","1","1",5,"first_half",1602,1429,2413,1721,1
"74","list4","Filler","3",19,"two","1","3","4","4","4",6,"first_half",1214,3520,1464,890,1
"74","list4","Filler","2",24,"five","4","2","1","1","1",7,"first_half",2164,1749,1907,942,1
"74","list4","Filler","2",29,"three","1","1","1","1","1",8,"first_half",11439,1543,4149,1172,1
"74","list4","Filler","1",31,"five","1","1","1","2","2",9,"first_half",1069,1522,2379,994,1
"74","list4","Exp","3",4,"none","2","2","4","4","4",10,"first_half",1433,1065,6414,1143,1
"74","list4","Filler","3",30,"three","4","4","4","4","4",11,"first_half",4101,1671,1871,1207,1
"74","list4","Filler","2",13,"two","4","2","1","1","1",12,"first_half",1281,1732,2367,956,1
"74","list4","Filler","1",8,"three","1","1","2","2","2",13,"first_half",1470,2050,3044,1149,1
"74","list4","Exp","2",3,"some","2","2","1","1","1",14,"first_half",1413,950,3407,900,1
"74","list4","Exp","4",21,"not all","1","3","3","3","3",15,"first_half",1228,1429,7593,1600,1
"74","list4","Filler","4",32,"five","3","3","3","3","3",16,"second_half",2557,1028,2207,1008,1
"74","list4","Exp","1",5,"not all","3","1","2","2","2",17,"second_half",1121,1379,1707,843,1
"74","list4","Filler","4",20,"zero","2","4","3","3","3",18,"second_half",12367,1186,1729,1457,1
"74","list4","Filler","4",25,"zero","3","3","3","3","3",19,"second_half",5215,914,1686,3672,1
"74","list4","Exp","4",17,"some","3","3","3","3","3",20,"second_half",1193,1729,1685,1021,1
"74","list4","Exp","1",22,"some","3","1","2","2","2",21,"second_half",1035,1236,1514,1157,1
"74","list4","Filler","3",27,"two","2","4","4","4","4",22,"second_half",1042,1493,2272,1050,1
"74","list4","Exp","4",1,"none","4","4","3","3","3",23,"second_half",1257,1350,3837,2021,1
"74","list4","Filler","4",12,"three","3","3","3","3","3",24,"second_half",1285,1380,2692,829,1
"74","list4","Filler","2",26,"zero","3","1","1","1","1",25,"second_half",1478,1587,1857,3336,1
"74","list4","Exp","2",15,"not all","1","1","2","1","1",26,"second_half",1307,1664,3196,7715,1
"74","list4","Exp","3",10,"some","1","3","4","4","4",27,"second_half",1271,1800,1758,962,1
"74","list4","Filler","1",16,"zero","4","2","2","2","2",28,"second_half",3044,1707,2293,1592,1
"74","list4","Exp","1",23,"none","2","2","2","2","2",29,"second_half",1100,1100,1407,1142,1
"74","list4","Exp","3",7,"all","2","4","4","4","4",30,"second_half",2085,1286,4029,750,1
"74","list4","Exp","4",9,"all","4","4","3","3","3",31,"second_half",1215,1273,1734,986,1
"74","list4","Exp","3",2,"not all","3","3","4","4","4",32,"second_half",1035,1079,1479,964,1
"95","list4","Filler","3",19,"two","1","3","4","4","4",1,"first_half",1855,1953,1968,832,1
"95","list4","Exp","4",21,"not all","1","3","3","3","3",2,"first_half",3153,1840,5027,2279,1
"95","list4","Exp","1",23,"none","3","1","2","2","2",3,"first_half",4377,1447,4250,1896,1
"95","list4","Exp","2",15,"not all","1","1","1","1","1",4,"first_half",2145,1335,5138,2079,1
"95","list4","Exp","2",6,"none","3","3","1","1","1",6,"first_half",3417,1248,3528,1417,1
"95","list4","Exp","1",22,"some","1","1","2","2","2",7,"first_half",2127,2001,3650,1784,1
"95","list4","Filler","2",13,"two","1","1","1","1","1",8,"first_half",2512,1802,2856,1568,1
"95","list4","Exp","3",7,"all","2","4","4","4","4",9,"first_half",4256,1633,2713,1048,1
"95","list4","Filler","1",8,"three","4","2","2","2","2",10,"first_half",2673,1568,3866,832,1
"95","list4","Filler","3",11,"five","2","4","4","4","4",11,"first_half",1543,1432,1474,1448,1
"95","list4","Filler","1",16,"zero","4","2","2","2","2",12,"first_half",1401,1255,1680,505,1
"95","list4","Filler","3",30,"three","4","4","4","4","4",13,"first_half",1680,1103,1674,1464,1
"95","list4","Exp","1",14,"all","4","2","2","2","2",14,"first_half",1425,1833,2208,577,1
"95","list4","Filler","4",25,"zero","2","4","4","3","3",15,"first_half",1336,10547,2177,1408,1
"95","list4","Filler","2",24,"five","3","1","1","1","1",16,"second_half",1497,1248,1545,664,1
"95","list4","Exp","3",4,"none","1","3","4","4","4",17,"second_half",2201,1489,2850,496,1
"95","list4","Exp","2",18,"all","4","2","1","1","1",18,"second_half",1177,1551,2138,904,1
"95","list4","Filler","1",28,"two","1","1","1","2","2",19,"second_half",2231,1122,2496,1416,1
"95","list4","Filler","1",31,"five","1","1","1","2","2",21,"second_half",3170,920,1833,1584,1
"95","list4","Exp","4",9,"all","1","3","3","3","3",22,"second_half",3113,1266,2159,617,1
"95","list4","Exp","3",10,"some","3","3","4","4","4",23,"second_half",1463,977,1896,1258,1
"95","list4","Filler","2",29,"three","3","1","1","1","1",24,"second_half",1439,1481,2794,1088,1
"95","list4","Exp","4",17,"some","1","3","3","3","3",25,"second_half",1303,1473,1617,1105,1
"95","list4","Filler","4",32,"five","1","3","3","3","3",26,"second_half",14500,1554,1937,791,1
"95","list4","Filler","2",26,"zero","3","1","1","1","1",27,"second_half",1529,1535,4915,1928,1
"95","list4","Exp","3",2,"not all","1","3","4","4","4",28,"second_half",1255,1593,4306,2433,1
"95","list4","Filler","4",20,"zero","3","3","3","3","3",29,"second_half",1520,1008,2091,862,1
"95","list4","Filler","4",12,"three","3","3","3","3","3",30,"second_half",2224,1361,2378,776,1
"95","list4","Exp","2",3,"some","1","1","1","1","1",31,"second_half",2041,1079,1696,553,1
"95","list4","Exp","4",1,"none","4","4","3","3","3",32,"second_half",2105,1016,2050,623,1
"66","list4","Filler","3",27,"two","1","3","3","4","4",1,"first_half",1755,1617,2000,1381,1
"66","list4","Exp","4",9,"all","4","3","3","3","3",2,"first_half",1110,1969,1334,845,1
"66","list4","Filler","3",11,"five","4","4","4","4","4",3,"first_half",2797,1548,1672,909,1
"66","list4","Filler","4",32,"five","4","4","4","3","3",4,"first_half",1692,975,1331,1444,1
"66","list4","Exp","1",5,"not all","3","1","1","2","2",5,"first_half",1309,1910,2245,2443,1
"66","list4","Exp","3",10,"some","1","3","4","4","4",6,"first_half",2780,1222,1763,776,1
"66","list4","Exp","2",15,"not all","4","2","1","1","1",7,"first_half",3039,1407,2243,709,1
"66","list4","Exp","4",1,"none","1","3","3","3","3",8,"first_half",1275,1361,1984,2756,1
"66","list4","Filler","4",25,"zero","3","3","3","3","3",9,"first_half",963,1457,1464,1444,1
"66","list4","Filler","3",19,"two","1","3","4","4","4",10,"first_half",2456,1033,2485,1029,1
"66","list4","Exp","2",18,"all","4","2","1","1","1",11,"first_half",1177,1332,1528,887,1
"66","list4","Exp","3",7,"all","3","3","4","4","4",12,"first_half",1968,854,1490,543,1
"66","list4","Filler","2",26,"zero","4","2","2","1","1",13,"first_half",1324,1951,1271,1367,1
"66","list4","Exp","4",21,"not all","1","3","3","3","3",14,"first_half",922,1724,3898,2713,1
"66","list4","Filler","1",31,"five","3","1","1","2","2",15,"first_half",1101,1355,1047,1126,1
"66","list4","Exp","2",3,"some","2","2","1","1","1",16,"second_half",1512,1124,1561,674,1
"66","list4","Exp","3",2,"not all","1","3","4","4","4",17,"second_half",1319,1575,1888,817,1
"66","list4","Exp","1",22,"some","4","2","2","2","2",18,"second_half",1097,1638,1145,819,1
"66","list4","Exp","3",4,"none","2","4","4","4","4",19,"second_half",1263,1221,1859,562,1
"66","list4","Exp","4",17,"some","4","4","3","3","3",20,"second_half",978,923,1096,661,1
"66","list4","Filler","1",28,"two","3","2","2","2","2",21,"second_half",1414,1035,3644,3232,1
"66","list4","Filler","2",29,"three","2","2","2","1","1",22,"second_half",1116,861,1581,945,1
"66","list4","Exp","1",14,"all","2","2","2","2","2",23,"second_half",1916,1193,1888,659,1
"66","list4","Filler","4",12,"three","1","3","3","3","3",24,"second_half",1165,1014,2034,534,1
"66","list4","Exp","1",23,"none","3","1","2","2","2",25,"second_half",2144,2119,1700,645,1
"66","list4","Exp","2",6,"none","1","1","1","1","1",26,"second_half",1623,1021,2610,833,1
"66","list4","Filler","4",20,"zero","3","3","3","3","3",27,"second_half",1542,943,1959,681,1
"66","list4","Filler","2",13,"two","4","2","1","1","1",28,"second_half",1833,1138,4270,1589,1
"66","list4","Filler","2",24,"five","2","2","1","1","1",29,"second_half",2152,1402,2296,3539,1
"66","list4","Filler","3",30,"three","1","3","3","4","4",30,"second_half",1468,1182,1347,1249,1
"66","list4","Filler","1",8,"three","4","2","2","2","2",31,"second_half",1888,1111,1818,591,1
"66","list4","Filler","1",16,"zero","2","2","2","2","2",32,"second_half",1209,993,1320,514,1
"82","list4","Filler","1",8,"three","1","1","2","2","2",1,"first_half",1152,1077,1906,957,1
"82","list4","Filler","4",12,"three","1","3","3","3","3",2,"first_half",1842,1226,1798,621,1
"82","list4","Filler","3",27,"two","3","3","4","4","4",3,"first_half",1575,993,2490,2525,1
"82","list4","Filler","4",20,"zero","3","3","3","3","3",4,"first_half",1050,747,1862,590,1
"82","list4","Filler","1",16,"zero","3","1","2","2","2",5,"first_half",1509,1548,1585,1055,1
"82","list4","Exp","4",17,"some","1","3","3","3","3",6,"first_half",1467,1165,2285,640,1
"82","list4","Exp","1",22,"some","3","1","2","2","2",7,"first_half",1100,1138,1899,661,1
"82","list4","Filler","1",28,"two","1","1","1","2","2",8,"first_half",1214,907,1810,1699,1
"82","list4","Filler","3",11,"five","3","3","4","4","4",9,"first_half",1344,631,1917,726,1
"82","list4","Exp","4",9,"all","3","3","3","3","3",10,"first_half",1208,869,1445,603,1
"82","list4","Filler","4",25,"zero","3","3","3","3","3",11,"first_half",711,906,1669,1753,1
"82","list4","Filler","2",13,"two","3","3","1","1","1",12,"first_half",612,676,2378,597,1
"82","list4","Filler","2",26,"zero","1","1","1","1","1",13,"first_half",4038,928,1007,1718,1
"82","list4","Exp","2",18,"all","1","1","1","1","1",14,"first_half",899,798,1769,842,1
"82","list4","Filler","3",30,"three","1","3","3","4","4",15,"first_half",927,1172,3230,1258,1
"82","list4","Exp","2",15,"not all","3","1","1","1","1",16,"second_half",984,1187,1819,1244,1
"82","list4","Exp","1",5,"not all","1","1","2","2","2",17,"second_half",26534,887,2575,1402,1
"82","list4","Exp","3",4,"none","1","3","4","4","4",18,"second_half",922,1214,2963,662,1
"82","list4","Exp","1",14,"all","4","1","2","2","2",19,"second_half",886,1230,1199,403,1
"82","list4","Filler","1",31,"five","1","1","1","2","2",20,"second_half",999,805,1619,1049,1
"82","list4","Filler","2",29,"three","1","1","1","1","1",21,"second_half",1101,841,1906,697,1
"82","list4","Exp","3",7,"all","1","3","4","4","4",22,"second_half",708,1407,2237,855,1
"82","list4","Exp","3",2,"not all","3","3","4","4","4",23,"second_half",1841,1489,1439,223,1
"82","list4","Exp","3",10,"some","3","3","3","4","4",24,"second_half",1482,682,885,734,1
"82","list4","Filler","4",32,"five","3","3","3","3","3",25,"second_half",1719,726,1222,836,1
"82","list4","Exp","4",21,"not all","3","3","3","3","3",26,"second_half",790,856,1453,244,1
"82","list4","Exp","2",3,"some","3","1","1","1","1",27,"second_half",942,1294,1496,181,1
"82","list4","Filler","2",24,"five","1","1","1","1","1",28,"second_half",840,1289,1026,202,1
"82","list4","Exp","1",23,"none","1","1","2","2","2",29,"second_half",1446,653,2056,820,1
"82","list4","Filler","3",19,"two","1","3","4","4","4",30,"second_half",1013,1181,1552,217,1
"82","list4","Exp","4",1,"none","3","3","3","3","3",31,"second_half",941,706,1114,238,1
"82","list4","Exp","2",6,"none","3","1","1","1","1",32,"second_half",890,1151,1366,208,1
"108","list4","Exp","2",3,"some","1","1","1","1","1",1,"first_half",1206,1413,934,753,1
"108","list4","Exp","1",5,"not all","1","1","2","2","2",2,"first_half",2147,807,2510,1007,1
"108","list4","Filler","1",31,"five","2","2","2","2","2",3,"first_half",2171,1151,1518,887,1
"108","list4","Exp","1",22,"some","3","1","2","2","2",4,"first_half",2076,1072,1454,863,1
"108","list4","Exp","2",15,"not all","4","2","1","1","1",5,"first_half",1813,1117,1702,1032,1
"108","list4","Filler","3",11,"five","3","3","4","4","4",6,"first_half",1748,831,1414,423,1
"108","list4","Exp","3",4,"none","1","3","4","4","4",7,"first_half",1159,1205,1511,742,1
"108","list4","Filler","1",8,"three","3","1","2","2","2",8,"first_half",1133,1296,1405,608,1
"108","list4","Filler","4",25,"zero","1","3","3","3","3",9,"first_half",1365,1326,1391,926,1
"108","list4","Filler","1",16,"zero","3","1","2","2","2",10,"first_half",1638,1118,1206,535,1
"108","list4","Filler","3",30,"three","3","3","3","4","4",12,"first_half",2516,1005,1415,966,1
"108","list4","Exp","4",21,"not all","3","3","3","3","3",13,"first_half",1430,927,1510,1006,1
"108","list4","Exp","2",18,"all","3","1","1","1","1",14,"first_half",1255,1198,1438,536,1
"108","list4","Filler","2",24,"five","3","1","1","1","1",15,"first_half",1413,1271,1334,768,1
"108","list4","Filler","1",28,"two","1","1","1","2","2",16,"second_half",1174,1007,1614,1214,1
"108","list4","Exp","3",2,"not all","1","3","4","4","4",17,"second_half",1190,1422,1438,577,1
"108","list4","Exp","4",17,"some","4","4","3","3","3",18,"second_half",1023,990,1982,1111,1
"108","list4","Exp","4",9,"all","1","3","3","3","3",19,"second_half",1214,1222,1255,711,1
"108","list4","Exp","2",6,"none","3","1","1","1","1",20,"second_half",1206,1079,1542,592,1
"108","list4","Filler","2",26,"zero","1","1","1","1","1",21,"second_half",1103,862,975,728,1
"108","list4","Filler","2",29,"three","3","1","1","1","1",22,"second_half",1588,1352,1525,856,1
"108","list4","Filler","4",20,"zero","1","3","3","3","3",23,"second_half",967,1589,832,647,1
"108","list4","Exp","3",7,"all","3","3","4","4","4",24,"second_half",1190,895,1710,511,1
"108","list4","Exp","1",14,"all","4","2","2","2","2",25,"second_half",998,1422,935,560,1
"108","list4","Filler","2",13,"two","2","2","1","1","1",26,"second_half",975,823,1598,679,1
"108","list4","Exp","4",1,"none","1","4","3","3","3",27,"second_half",942,2469,1216,822,1
"108","list4","Filler","4",12,"three","3","3","3","3","3",28,"second_half",1133,1135,1072,808,1
"108","list4","Filler","4",32,"five","3","3","3","3","3",29,"second_half",925,1103,1550,919,1
"108","list4","Exp","3",10,"some","3","3","4","4","4",30,"second_half",1014,927,1375,974,1
"108","list4","Exp","1",23,"none","4","2","2","2","2",31,"second_half",1038,1239,1023,735,1
"108","list4","Filler","3",19,"two","2","4","4","4","4",32,"second_half",1446,1158,1127,551,1
"90","list4","Filler","2",24,"five","4","2","1","1","1",1,"first_half",1193,1440,1324,524,1
"90","list4","Filler","1",16,"zero","3","2","2","2","2",2,"first_half",1229,1291,1011,416,1
"90","list4","Exp","2",15,"not all","3","1","2","1","1",3,"first_half",1056,1179,1725,2699,1
"90","list4","Filler","2",26,"zero","4","2","2","1","1",4,"first_half",1172,1461,757,1788,1
"90","list4","Exp","4",21,"not all","1","3","3","3","3",5,"first_half",778,1030,1542,1529,1
"90","list4","Exp","2",3,"some","4","2","1","1","1",6,"first_half",1022,1424,1274,580,1
"90","list4","Filler","2",29,"three","2","2","2","1","1",7,"first_half",1526,769,1239,1177,1
"90","list4","Filler","4",12,"three","3","3","3","3","3",8,"first_half",1863,559,895,552,1
"90","list4","Filler","3",30,"three","4","4","4","4","4",9,"first_half",1720,798,1537,915,1
"90","list4","Exp","3",10,"some","3","3","3","4","4",10,"first_half",1481,552,716,844,1
"90","list4","Exp","4",9,"all","4","4","3","3","3",11,"first_half",861,525,1426,596,1
"90","list4","Exp","1",22,"some","3","1","1","2","2",12,"first_half",937,1477,981,838,1
"90","list4","Exp","1",23,"none","4","1","2","2","2",13,"first_half",1735,1444,1408,893,1
"90","list4","Exp","3",7,"all","2","2","4","4","4",14,"first_half",1789,684,1170,524,1
"90","list4","Exp","4",1,"none","3","3","3","3","3",15,"first_half",956,587,990,880,1
"90","list4","Filler","3",27,"two","3","3","3","4","4",16,"second_half",975,744,1195,860,1
"90","list4","Exp","1",14,"all","3","1","2","2","2",17,"second_half",1158,937,1091,484,1
"90","list4","Filler","1",8,"three","3","1","2","2","2",18,"second_half",1338,1460,1153,519,1
"90","list4","Exp","1",5,"not all","2","2","2","2","2",19,"second_half",868,748,1403,1299,1
"90","list4","Filler","3",19,"two","3","3","4","4","4",20,"second_half",1610,662,1440,449,1
"90","list4","Exp","4",17,"some","3","3","3","3","3",21,"second_half",2032,1297,935,486,1
"90","list4","Filler","2",13,"two","3","3","1","1","1",22,"second_half",591,655,2739,784,1
"90","list4","Filler","4",20,"zero","1","3","3","3","3",23,"second_half",561,919,1011,1031,1
"90","list4","Filler","3",11,"five","3","3","4","4","4",24,"second_half",785,731,1165,452,1
"90","list4","Exp","2",6,"none","4","4","1","1","1",25,"second_half",518,1430,1534,2561,1
"90","list4","Filler","4",32,"five","3","3","3","3","3",26,"second_half",4101,533,1196,845,1
"90","list4","Exp","3",4,"none","3","3","3","4","4",27,"second_half",764,178,2035,1603,1
"90","list4","Exp","3",2,"not all","4","4","4","4","4",28,"second_half",662,182,213,4503,1
"90","list4","Filler","4",25,"zero","3","3","3","3","3",29,"second_half",791,150,177,3383,1
"90","list4","Filler","1",28,"two","3","3","3","2","2",30,"second_half",569,299,885,2659,1
"90","list4","Exp","2",18,"all","2","2","2","1","1",31,"second_half",655,164,225,1150,1
"90","list4","Filler","1",31,"five","1","1","1","2","2",32,"second_half",480,157,208,1003,1
"99","list4","Exp","1",14,"all","3","1","2","2","2",1,"first_half",1920,1309,1961,640,1
"99","list4","Filler","1",31,"five","1","1","2","2","2",2,"first_half",2092,1009,2230,584,1
"99","list4","Filler","4",32,"five","3","3","4","3","3",3,"first_half",1584,625,1885,1072,1
"99","list4","Exp","2",18,"all","1","1","1","1","1",4,"first_half",1377,732,1177,463,1
"99","list4","Exp","4",17,"some","3","3","3","3","3",5,"first_half",1475,708,1344,457,1
"99","list4","Filler","2",29,"three","3","3","2","1","1",6,"first_half",839,649,2878,1143,1
"99","list4","Filler","4",20,"zero","1","3","3","3","3",7,"first_half",1300,1529,2796,2121,1
"99","list4","Filler","3",27,"two","3","3","3","4","4",8,"first_half",739,609,1817,1185,1
"99","list4","Exp","2",3,"some","4","1","1","1","1",9,"first_half",666,1168,1338,656,1
"99","list4","Filler","4",25,"zero","1","3","3","3","3",10,"first_half",756,1249,728,1242,1
"99","list4","Exp","3",2,"not all","3","3","4","4","4",11,"first_half",524,513,3081,400,1
"99","list4","Exp","1",22,"some","3","3","2","2","2",12,"first_half",1140,592,1594,384,1
"99","list4","Exp","1",5,"not all","2","2","2","2","2",13,"first_half",1116,945,2226,476,1
"99","list4","Exp","4",1,"none","2","3","4","3","3",14,"first_half",671,1008,2015,2688,1
"99","list4","Filler","3",19,"two","3","3","4","4","4",15,"first_half",553,1228,3227,541,1
"99","list4","Filler","1",8,"three","4","2","2","2","2",16,"second_half",920,1096,1417,605,1
"99","list4","Filler","2",13,"two","2","2","1","1","1",17,"second_half",623,673,1553,433,1
"99","list4","Exp","2",6,"none","1","1","1","1","1",18,"second_half",516,504,1233,1352,1
"99","list4","Exp","4",9,"all","1","1","3","3","3",19,"second_half",489,412,1906,407,1
"99","list4","Filler","3",30,"three","3","3","3","4","4",20,"second_half",841,696,1645,889,1
"99","list4","Filler","1",16,"zero","4","4","1","2","2",21,"second_half",536,464,1757,898,1
"99","list4","Exp","3",10,"some","2","2","2","4","4",22,"second_half",616,920,1862,1569,1
"99","list4","Exp","2",15,"not all","4","4","4","1","1",23,"second_half",688,545,1125,2138,1
"99","list4","Filler","4",12,"three","1","3","3","3","3",24,"second_half",576,1117,1265,472,1
"99","list4","Filler","2",26,"zero","3","1","1","1","1",25,"second_half",583,943,719,912,1
"99","list4","Exp","4",21,"not all","1","1","3","3","3",26,"second_half",360,376,2341,609,1
"99","list4","Filler","3",11,"five","3","3","4","4","4",27,"second_half",550,448,2301,456,1
"99","list4","Filler","2",24,"five","4","1","1","1","1",28,"second_half",511,1089,664,472,1
"99","list4","Exp","3",7,"all","1","3","4","4","4",29,"second_half",579,1624,1266,455,1
"99","list4","Exp","3",4,"none","4","4","3","4","4",30,"second_half",628,1416,1920,2012,1
"99","list4","Filler","1",28,"two","4","4","2","2","2",31,"second_half",528,472,2069,777,1
"99","list4","Exp","1",23,"none","2","2","2","2","2",32,"second_half",1432,480,988,760,1
"104","list4","Filler","4",25,"zero","3","3","3","3","3",1,"first_half",1480,1105,1114,780,1
"104","list4","Filler","3",30,"three","3","3","3","4","4",2,"first_half",2211,910,1274,1059,1
"104","list4","Exp","1",14,"all","2","2","2","2","2",3,"first_half",1772,530,923,718,1
"104","list4","Exp","2",18,"all","2","2","1","1","1",4,"first_half",1915,532,2054,605,1
"104","list4","Exp","4",1,"none","2","4","3","3","3",5,"first_half",2363,1697,1934,511,1
"104","list4","Filler","2",29,"three","3","3","1","1","1",6,"first_half",1687,619,2221,637,1
"104","list4","Exp","4",9,"all","3","3","3","3","3",7,"first_half",2340,576,834,481,1
"104","list4","Filler","1",8,"three","2","2","2","2","2",8,"first_half",2463,613,1272,450,1
"104","list4","Exp","3",4,"none","1","4","4","4","4",9,"first_half",1475,1311,1070,449,1
"104","list4","Filler","3",11,"five","1","3","4","4","4",10,"first_half",1434,1660,1350,569,1
"104","list4","Filler","3",27,"two","1","3","3","4","4",11,"first_half",1999,1340,1108,1082,1
"104","list4","Exp","4",21,"not all","2","4","3","3","3",12,"first_half",1340,1691,2296,2183,1
"104","list4","Exp","3",2,"not all","1","3","4","4","4",13,"first_half",1645,1201,1790,500,1
"104","list4","Exp","1",5,"not all","2","2","2","2","2",14,"first_half",1394,502,1045,556,1
"104","list4","Filler","1",16,"zero","1","1","2","2","2",15,"first_half",1448,457,1517,458,1
"104","list4","Exp","2",15,"not all","1","1","2","1","1",16,"second_half",1099,417,2731,1513,1
"104","list4","Exp","1",23,"none","3","3","2","2","2",17,"second_half",1669,360,2026,427,1
"104","list4","Filler","3",19,"two","1","1","4","4","4",18,"second_half",1349,365,1700,396,1
"104","list4","Filler","1",28,"two","3","3","1","2","2",19,"second_half",1402,390,1261,1249,1
"104","list4","Filler","4",32,"five","3","3","3","3","3",20,"second_half",2708,613,1233,643,1
"104","list4","Exp","3",10,"some","3","3","4","4","4",21,"second_half",1484,522,1259,637,1
"104","list4","Exp","2",3,"some","3","2","1","1","1",22,"second_half",1794,1260,1347,719,1
"104","list4","Exp","2",6,"none","1","2","1","1","1",23,"second_half",1065,1120,1405,771,1
"104","list4","Filler","2",13,"two","1","1","1","1","1",24,"second_half",1824,706,837,412,1
"104","list4","Exp","1",22,"some","2","2","2","2","2",25,"second_half",2296,457,792,711,1
"104","list4","Filler","1",31,"five","1","1","1","2","2",26,"second_half",1326,441,711,1096,1
"104","list4","Filler","4",20,"zero","1","3","3","3","3",28,"second_half",2883,1639,1229,447,1
"104","list4","Exp","3",7,"all","2","4","4","4","4",29,"second_half",1590,1090,1223,642,1
"104","list4","Filler","4",12,"three","1","3","3","3","3",30,"second_half",2147,1049,1460,605,1
"104","list4","Filler","2",24,"five","1","1","1","1","1",31,"second_half",2228,779,1189,485,1
"104","list4","Filler","2",26,"zero","3","3","2","1","1",32,"second_half",2142,454,1199,1107,1
"70","list4","Filler","4",12,"three","2","3","3","3","3",1,"first_half",1797,1333,1710,781,1
"70","list4","Exp","2",18,"all","1","1","1","1","1",2,"first_half",1390,944,1139,488,1
"70","list4","Filler","3",19,"two","2","3","4","4","4",3,"first_half",1073,854,1163,570,1
"70","list4","Filler","1",16,"zero","3","1","2","2","2",4,"first_half",1683,993,1277,447,1
"70","list4","Exp","4",21,"not all","4","4","3","3","3",5,"first_half",1342,903,1488,448,1
"70","list4","Filler","3",27,"two","1","3","3","4","4",6,"first_half",1708,1139,2091,1090,1
"70","list4","Filler","2",26,"zero","1","1","1","1","1",7,"first_half",1440,846,1342,1562,1
"70","list4","Exp","1",23,"none","1","1","2","2","2",8,"first_half",1097,855,1179,374,1
"70","list4","Exp","4",17,"some","3","3","3","3","3",9,"first_half",1561,553,1310,496,1
"70","list4","Filler","4",20,"zero","1","3","3","3","3",10,"first_half",1032,904,1276,374,1
"70","list4","Filler","3",11,"five","1","3","4","4","4",11,"first_half",1024,854,1016,383,1
"70","list4","Filler","1",28,"two","3","1","1","2","2",12,"first_half",878,1260,1497,903,1
"70","list4","Filler","3",30,"three","1","3","3","4","4",13,"first_half",1024,902,1521,863,1
"70","list4","Exp","4",1,"none","1","1","3","3","3",14,"first_half",1203,659,3351,439,1
"70","list4","Filler","2",29,"three","3","1","2","1","1",15,"first_half",836,862,1594,1228,1
"70","list4","Exp","3",4,"none","1","3","4","4","4",16,"second_half",748,1204,1879,341,1
"70","list4","Filler","4",25,"zero","3","3","3","3","3",17,"second_half",1122,724,1032,1269,1
"70","list4","Exp","1",14,"all","1","2","2","2","2",18,"second_half",1227,789,1366,464,1
"70","list4","Exp","2",3,"some","2","2","1","1","1",19,"second_half",714,586,2586,439,1
"70","list4","Exp","4",9,"all","1","3","3","3","3",20,"second_half",910,1334,935,406,1
"70","list4","Filler","2",13,"two","3","1","1","1","1",21,"second_half",723,862,1326,431,1
"70","list4","Exp","3",2,"not all","1","3","4","4","4",22,"second_half",731,1017,1373,359,1
"70","list4","Filler","4",32,"five","1","1","4","3","3",23,"second_half",934,878,1806,561,1
"70","list4","Exp","1",22,"some","3","1","2","2","2",24,"second_half",1048,984,1204,341,1
"70","list4","Filler","1",8,"three","1","1","2","2","2",25,"second_half",869,1106,1131,463,1
"70","list4","Exp","2",15,"not all","1","1","1","1","1",26,"second_half",918,976,2334,479,1
"70","list4","Filler","2",24,"five","3","1","1","1","1",27,"second_half",1326,1569,1269,479,1
"70","list4","Exp","3",10,"some","3","3","4","4","4",28,"second_half",1049,593,1236,374,1
"70","list4","Exp","1",5,"not all","1","1","2","2","2",29,"second_half",837,691,1188,422,1
"70","list4","Exp","2",6,"none","3","1","1","1","1",30,"second_half",1001,1008,3484,565,1
"70","list4","Filler","1",31,"five","1","1","1","2","2",31,"second_half",877,911,1375,959,1
"70","list4","Exp","3",7,"all","1","3","4","4","4",32,"second_half",1040,804,1155,391,1
"89","list1","Exp","1",15,"all","1","1","2","2","2",1,"first_half",1689,1721,1470,1002,1
"89","list1","Filler","4",13,"three","2","4","3","3","3",2,"first_half",1392,1811,2731,969,1
"89","list1","Exp","3",9,"none","3","3","4","4","4",3,"first_half",1236,1069,2663,1208,1
"89","list1","Exp","4",6,"some","4","4","3","3","3",4,"first_half",1117,1208,1720,910,1
"89","list1","Filler","1",24,"zero","3","1","2","2","2",5,"first_half",1465,1453,1774,875,1
"89","list1","Exp","3",1,"some","2","4","4","4","4",6,"first_half",1017,1557,1717,874,1
"89","list1","Exp","2",4,"some","4","1","1","1","1",7,"first_half",1191,1872,1624,811,1
"89","list1","Filler","2",26,"zero","1","1","1","1","1",8,"first_half",972,1116,1557,1528,1
"89","list1","Exp","2",22,"not all","1","1","1","1","1",9,"first_half",984,1108,1955,1694,1
"89","list1","Filler","1",31,"five","1","1","1","2","2",10,"first_half",935,893,1473,1668,1
"89","list1","Exp","4",17,"not all","2","4","3","3","3",11,"first_half",937,2006,2475,798,1
"89","list1","Exp","2",7,"none","1","1","1","1","1",12,"first_half",1577,1126,2135,889,1
"89","list1","Filler","3",30,"three","1","3","3","4","4",13,"first_half",1015,1522,3725,1171,1
"89","list1","Filler","3",8,"two","4","4","4","4","4",14,"first_half",910,1282,1239,857,1
"89","list1","Exp","1",3,"not all","4","4","4","4","4",15,"first_half",1632,1905,1761,750,1
"89","list1","Exp","1",18,"none","4","2","2","2","2",16,"second_half",935,1560,2949,830,1
"89","list1","Filler","1",28,"two","2","2","2","2","2",17,"second_half",935,3603,2878,801,1
"89","list1","Filler","1",11,"three","2","2","2","2","2",18,"second_half",989,1784,1550,953,1
"89","list1","Filler","2",29,"three","2","2","2","1","1",19,"second_half",1191,2827,1318,1457,1
"89","list1","Filler","4",25,"zero","1","3","3","3","3",20,"second_half",936,1696,1549,949,1
"89","list1","Exp","3",5,"all","3","3","4","4","4",21,"second_half",874,1113,1592,781,1
"89","list1","Filler","4",32,"five","4","4","4","3","3",22,"second_half",1266,1786,1332,1201,1
"89","list1","Exp","1",10,"not all","3","1","2","2","2",23,"second_half",966,1373,2530,895,1
"89","list1","Exp","2",2,"all","2","2","1","1","1",24,"second_half",875,1689,1752,721,1
"89","list1","Filler","3",27,"two","1","3","3","4","4",25,"second_half",903,1394,1866,1403,1
"89","list1","Filler","4",19,"zero","4","4","3","3","3",26,"second_half",1017,1187,1369,581,1
"89","list1","Exp","4",21,"all","3","3","3","3","3",27,"second_half",864,1079,1343,671,1
"89","list1","Exp","1",23,"some","3","1","2","2","2",28,"second_half",1105,1843,1500,991,1
"89","list1","Exp","4",14,"none","2","4","3","3","3",29,"second_half",956,1231,1419,1045,1
"89","list1","Filler","2",16,"two","3","1","1","1","1",30,"second_half",744,1861,1393,957,1
"89","list1","Filler","2",12,"five","1","1","1","1","1",31,"second_half",1313,1126,1018,894,1
"89","list1","Filler","3",20,"five","1","4","4","4","4",32,"second_half",2445,1716,1095,950,1
"111","list1","Exp","3",1,"some","3","3","3","4","4",1,"first_half",1998,1390,1316,1626,1
"111","list1","Filler","2",16,"two","3","2","1","1","1",2,"first_half",3544,1902,1493,1757,1
"111","list1","Exp","3",9,"none","1","3","4","4","4",3,"first_half",1923,1375,1841,1201,1
"111","list1","Exp","4",6,"some","4","4","3","3","3",4,"first_half",1631,1607,1733,1409,1
"111","list1","Filler","3",27,"two","4","4","4","4","4",5,"first_half",2207,2275,3484,1066,1
"111","list1","Exp","2",2,"all","3","1","1","1","1",6,"first_half",2472,1800,2134,3492,1
"111","list1","Filler","2",26,"zero","1","1","1","1","1",7,"first_half",4343,1441,2733,1400,1
"111","list1","Filler","4",32,"five","3","3","3","3","3",8,"first_half",2148,1758,2749,1068,1
"111","list1","Filler","3",8,"two","3","3","4","4","4",9,"first_half",2000,1640,1616,1259,1
"111","list1","Filler","3",20,"five","3","3","4","4","4",10,"first_half",1774,1874,1775,1375,1
"111","list1","Filler","2",29,"three","3","1","2","1","1",11,"first_half",1899,1575,2318,2698,1
"111","list1","Filler","2",12,"five","2","2","1","1","1",12,"first_half",1850,1931,1750,3699,1
"111","list1","Exp","2",4,"some","3","1","1","1","1",13,"first_half",1923,1501,1908,959,1
"111","list1","Exp","2",7,"none","1","1","1","1","1",14,"first_half",1339,1351,1582,950,1
"111","list1","Exp","4",14,"none","1","1","3","3","3",15,"first_half",1465,1208,2341,1344,1
"111","list1","Exp","1",15,"all","3","2","2","2","2",16,"second_half",1588,1677,1907,2616,1
"111","list1","Filler","1",31,"five","3","1","1","2","2",17,"second_half",2316,1308,1717,1106,1
"111","list1","Exp","1",18,"none","4","1","2","2","2",18,"second_half",1502,1407,2332,1076,1
"111","list1","Filler","4",25,"zero","4","4","4","3","3",19,"second_half",1790,1967,2165,1692,1
"111","list1","Filler","1",28,"two","2","2","2","2","2",20,"second_half",2565,1501,1942,1650,1
"111","list1","Filler","1",11,"three","1","1","2","2","2",21,"second_half",2303,1621,1924,915,1
"111","list1","Exp","1",3,"not all","4","4","4","4","4",22,"second_half",1940,1682,2500,1251,1
"111","list1","Filler","4",19,"zero","2","3","3","3","3",23,"second_half",2107,1542,2583,1533,1
"111","list1","Exp","1",23,"some","4","1","2","2","2",24,"second_half",1240,1327,1946,2428,1
"111","list1","Exp","2",22,"not all","4","2","1","1","1",25,"second_half",1955,1444,3542,1098,1
"111","list1","Filler","1",24,"zero","2","2","2","2","2",26,"second_half",1615,1825,1675,1292,1
"111","list1","Filler","4",13,"three","3","3","4","3","3",27,"second_half",2433,2598,8042,1558,1
"111","list1","Exp","1",10,"not all","1","1","2","2","2",28,"second_half",2173,1436,2190,1732,1
"111","list1","Filler","3",30,"three","3","3","3","4","4",29,"second_half",1798,1591,2258,1150,1
"111","list1","Exp","4",21,"all","3","3","3","3","3",30,"second_half",1492,1848,1633,975,1
"111","list1","Exp","4",17,"not all","1","4","3","3","3",31,"second_half",1656,3084,2725,882,1
"111","list1","Exp","3",5,"all","3","3","4","4","4",32,"second_half",1329,1283,1483,967,1
"69","list1","Filler","4",13,"three","4","4","3","3","3",1,"first_half",3064,1053,1821,607,1
"69","list1","Exp","2",22,"not all","3","2","1","1","1",2,"first_half",2264,2422,2486,1190,1
"69","list1","Filler","1",28,"two","3","2","2","2","2",3,"first_half",2061,1580,1937,853,1
"69","list1","Exp","3",1,"some","3","3","3","4","4",4,"first_half",2461,885,1427,1112,1
"69","list1","Exp","4",14,"none","4","4","3","3","3",5,"first_half",1914,985,1536,632,1
"69","list1","Filler","2",16,"two","2","2","1","1","1",6,"first_half",2186,835,1318,322,1
"69","list1","Filler","3",27,"two","2","3","3","4","4",7,"first_half",2047,1444,1123,1238,1
"69","list1","Filler","3",20,"five","3","3","4","4","4",8,"first_half",1758,976,1749,650,1
"69","list1","Exp","1",23,"some","2","2","2","2","2",9,"first_half",2793,740,1051,615,1
"69","list1","Exp","2",7,"none","1","1","1","1","1",10,"first_half",2739,822,933,609,1
"69","list1","Exp","2",4,"some","1","1","1","1","1",11,"first_half",1936,727,946,591,1
"69","list1","Filler","4",25,"zero","2","3","3","3","3",12,"first_half",1888,1305,884,1315,1
"69","list1","Exp","2",2,"all","2","2","1","1","1",13,"first_half",2406,745,1480,514,1
"69","list1","Filler","4",19,"zero","3","3","3","3","3",14,"first_half",1486,713,1346,590,1
"69","list1","Filler","1",24,"zero","2","2","2","2","2",15,"first_half",1208,637,1115,896,1
"69","list1","Filler","3",30,"three","1","1","3","4","4",16,"second_half",1332,724,3603,1212,1
"69","list1","Exp","1",15,"all","4","2","2","2","2",17,"second_half",1279,1209,1118,547,1
"69","list1","Filler","1",31,"five","2","2","2","2","2",18,"second_half",1648,802,980,728,1
"69","list1","Filler","4",32,"five","3","3","3","3","3",19,"second_half",1944,792,745,653,1
"69","list1","Filler","1",11,"three","4","2","2","2","2",20,"second_half",1273,1468,862,560,1
"69","list1","Filler","2",12,"five","4","1","1","1","1",21,"second_half",2489,1257,744,508,1
"69","list1","Exp","3",9,"none","2","3","3","4","4",22,"second_half",991,1488,899,1149,1
"69","list1","Filler","3",8,"two","2","4","4","4","4",23,"second_half",3642,1704,848,485,1
"69","list1","Exp","4",21,"all","3","3","3","3","3",24,"second_half",1162,807,960,539,1
"69","list1","Exp","1",18,"none","4","2","2","2","2",25,"second_half",1096,1499,1575,593,1
"69","list1","Filler","2",26,"zero","2","2","2","1","1",26,"second_half",2012,1140,1519,1323,1
"69","list1","Exp","3",5,"all","2","4","4","4","4",27,"second_half",1089,1459,1164,410,1
"69","list1","Exp","1",3,"not all","4","4","4","4","4",28,"second_half",822,810,1449,610,1
"69","list1","Exp","4",6,"some","4","4","3","3","3",29,"second_half",1265,1682,2486,669,1
"69","list1","Filler","2",29,"three","3","1","1","1","1",30,"second_half",992,1378,1371,987,1
"69","list1","Exp","1",10,"not all","1","1","2","2","2",31,"second_half",1135,729,1681,1024,1
"69","list1","Exp","4",17,"not all","2","3","3","3","3",32,"second_half",1069,2302,5417,1288,1
"107","list1","Exp","4",14,"none","1","3","3","3","3",1,"first_half",1094,1165,2211,772,1
"107","list1","Filler","1",11,"three","3","1","2","2","2",2,"first_half",1594,1095,1574,743,1
"107","list1","Exp","4",6,"some","2","4","3","3","3",3,"first_half",994,1016,1860,765,1
"107","list1","Filler","4",19,"zero","3","3","3","3","3",4,"first_half",1266,694,1359,744,1
"107","list1","Filler","3",20,"five","3","3","4","4","4",5,"first_half",981,828,1724,515,1
"107","list1","Exp","2",22,"not all","4","2","1","1","1",6,"first_half",1000,1331,2019,850,1
"107","list1","Filler","4",32,"five","1","3","3","3","3",7,"first_half",1221,952,2030,988,1
"107","list1","Filler","2",29,"three","3","1","1","1","1",8,"first_half",1264,1209,2575,1838,1
"107","list1","Exp","1",18,"none","1","1","2","2","2",9,"first_half",982,1650,1324,744,1
"107","list1","Filler","4",25,"zero","2","4","4","3","3",10,"first_half",1271,1080,1316,1433,1
"107","list1","Exp","1",3,"not all","3","3","4","4","4",11,"first_half",904,930,2825,587,1
"107","list1","Exp","2",7,"none","2","2","1","1","1",12,"first_half",1365,752,3105,643,1
"107","list1","Filler","3",27,"two","1","3","3","4","4",13,"first_half",1037,1919,1879,959,1
"107","list1","Exp","3",5,"all","4","4","4","4","4",14,"first_half",1194,980,1194,630,1
"107","list1","Filler","2",16,"two","4","2","1","1","1",15,"first_half",809,1458,1332,600,1
"107","list1","Filler","4",13,"three","1","3","3","3","3",16,"second_half",1151,1273,1960,823,1
"107","list1","Filler","1",28,"two","3","1","1","2","2",17,"second_half",899,1489,1480,965,1
"107","list1","Exp","4",21,"all","2","4","3","3","3",18,"second_half",956,1072,1618,543,1
"107","list1","Filler","3",8,"two","3","3","4","4","4",19,"second_half",1114,966,1144,530,1
"107","list1","Filler","1",31,"five","4","2","2","2","2",20,"second_half",1149,1161,1121,601,1
"107","list1","Filler","1",24,"zero","2","2","2","2","2",21,"second_half",936,1030,1725,564,1
"107","list1","Filler","3",30,"three","4","4","4","4","4",22,"second_half",1294,748,2228,686,1
"107","list1","Exp","4",17,"not all","4","4","3","3","3",23,"second_half",915,1030,1775,680,1
"107","list1","Exp","1",10,"not all","3","1","1","2","2",24,"second_half",1028,1038,2382,1216,1
"107","list1","Exp","2",2,"all","2","2","1","1","1",25,"second_half",1045,929,1409,480,1
"107","list1","Exp","2",4,"some","1","1","1","1","1",26,"second_half",850,829,1646,465,1
"107","list1","Filler","2",26,"zero","1","1","1","1","1",27,"second_half",1021,723,1459,1066,1
"107","list1","Exp","3",1,"some","1","3","4","4","4",28,"second_half",837,1008,1832,537,1
"107","list1","Filler","2",12,"five","4","2","1","1","1",29,"second_half",1630,1516,1254,392,1
"107","list1","Exp","1",23,"some","1","1","2","2","2",30,"second_half",892,852,1381,430,1
"107","list1","Exp","1",15,"all","2","2","2","2","2",31,"second_half",1270,780,766,550,1
"107","list1","Exp","3",9,"none","2","4","4","4","4",32,"second_half",1074,1102,1419,493,1
"94","list1","Exp","3",5,"all","1","3","4","4","4",1,"first_half",2810,1564,1476,641,1
"94","list1","Filler","2",12,"five","3","1","1","1","1",2,"first_half",4587,1567,1827,669,1
"94","list1","Filler","3",8,"two","3","3","4","4","4",3,"first_half",1559,1772,1537,586,1
"94","list1","Exp","2",2,"all","1","1","1","1","1",4,"first_half",1509,804,938,558,1
"94","list1","Filler","1",28,"two","3","1","1","2","2",5,"first_half",1550,2110,1057,1574,1
"94","list1","Filler","4",32,"five","1","3","3","3","3",6,"first_half",1573,1121,1602,709,1
"94","list1","Filler","4",19,"zero","3","3","3","3","3",7,"first_half",1690,726,2463,508,1
"94","list1","Exp","1",18,"none","3","1","2","2","2",8,"first_half",1114,1297,1743,550,1
"94","list1","Filler","4",25,"zero","3","3","3","3","3",9,"first_half",1707,1072,1637,1453,1
"94","list1","Exp","3",9,"none","1","3","4","4","4",10,"first_half",1515,2059,1574,698,1
"94","list1","Filler","2",16,"two","1","1","1","1","1",11,"first_half",1579,1065,1489,655,1
"94","list1","Filler","1",11,"three","3","1","2","2","2",12,"first_half",1106,1264,1185,556,1
"94","list1","Exp","4",21,"all","1","3","3","3","3",13,"first_half",1382,1326,2010,1142,1
"94","list1","Filler","3",30,"three","1","3","4","4","4",14,"first_half",1163,1263,1573,947,1
"94","list1","Filler","1",24,"zero","4","1","2","2","2",15,"first_half",873,3533,3703,1073,1
"94","list1","Exp","4",14,"none","1","3","3","3","3",16,"second_half",1092,1007,2639,889,1
"94","list1","Filler","3",27,"two","3","3","3","4","4",17,"second_half",1162,1461,1246,966,1
"94","list1","Exp","1",10,"not all","3","1","2","2","2",18,"second_half",1232,1123,1897,1071,1
"94","list1","Filler","4",13,"three","1","3","3","3","3",19,"second_half",1290,1079,2970,634,1
"94","list1","Filler","3",20,"five","3","3","4","4","4",20,"second_half",1552,1312,2587,952,1
"94","list1","Filler","2",29,"three","1","1","1","1","1",21,"second_half",1474,876,1438,874,1
"94","list1","Exp","4",6,"some","3","3","3","3","3",22,"second_half",1149,1149,1355,655,1
"94","list1","Exp","1",15,"all","1","1","2","2","2",23,"second_half",1165,1051,1741,600,1
"94","list1","Exp","2",7,"none","1","1","1","1","1",25,"second_half",1036,1233,1115,847,1
"94","list1","Exp","4",17,"not all","1","3","3","3","3",27,"second_half",1467,1284,1678,535,1
"94","list1","Exp","2",4,"some","1","1","1","1","1",29,"second_half",1680,1051,1663,487,1
"94","list1","Exp","1",23,"some","1","1","2","2","2",30,"second_half",980,852,1354,565,1
"94","list1","Filler","1",31,"five","3","1","1","2","2",31,"second_half",1345,1433,1685,1108,1
"94","list1","Filler","2",26,"zero","3","1","1","1","1",32,"second_half",1382,2087,1220,994,1
"102","list1","Filler","1",11,"three","3","1","2","2","2",1,"first_half",1675,1836,2590,1059,1
"102","list1","Exp","2",22,"not all","3","1","1","1","1",2,"first_half",2375,1904,2585,731,1
"102","list1","Filler","4",25,"zero","3","3","3","3","3",3,"first_half",1792,1066,2185,1508,1
"102","list1","Filler","2",12,"five","1","1","1","1","1",4,"first_half",1755,911,1734,624,1
"102","list1","Exp","2",7,"none","3","1","1","1","1",5,"first_half",2790,1272,1676,621,1
"102","list1","Exp","1",10,"not all","3","1","2","2","2",6,"first_half",1764,1669,2208,1189,1
"102","list1","Filler","1",28,"two","3","1","1","2","2",7,"first_half",1388,1936,1585,1818,1
"102","list1","Filler","3",8,"two","3","3","4","4","4",8,"first_half",1564,890,1441,576,1
"102","list1","Filler","2",26,"zero","1","1","1","1","1",9,"first_half",1806,801,3028,1019,1
"102","list1","Filler","4",13,"three","3","3","3","3","3",10,"first_half",1420,780,1466,580,1
"102","list1","Filler","4",32,"five","3","3","3","3","3",12,"first_half",6986,970,1319,972,1
"102","list1","Filler","1",24,"zero","1","1","2","2","2",13,"first_half",1350,755,2327,642,1
"102","list1","Filler","2",16,"two","1","1","1","1","1",14,"first_half",1627,1090,1613,532,1
"102","list1","Exp","2",2,"all","3","1","1","1","1",15,"first_half",1154,1234,1245,575,1
"102","list1","Exp","2",4,"some","1","1","1","1","1",16,"second_half",1351,935,1373,733,1
"102","list1","Exp","3",9,"none","1","3","4","4","4",17,"second_half",1113,1540,1431,719,1
"102","list1","Exp","1",18,"none","1","1","2","2","2",18,"second_half",1310,913,1532,2272,1
"102","list1","Exp","4",6,"some","1","3","3","3","3",19,"second_half",1902,1292,1375,536,1
"102","list1","Filler","3",20,"five","1","3","4","4","4",20,"second_half",1340,1588,1331,757,1
"102","list1","Exp","4",21,"all","1","3","3","3","3",22,"second_half",1759,1607,951,568,1
"102","list1","Filler","3",30,"three","1","3","3","4","4",23,"second_half",3453,1180,1718,1020,1
"102","list1","Exp","4",17,"not all","3","3","3","3","3",24,"second_half",1478,778,1359,572,1
"102","list1","Filler","4",19,"zero","1","3","3","3","3",25,"second_half",1133,1762,1236,543,1
"102","list1","Exp","3",1,"some","3","3","4","4","4",26,"second_half",843,843,1758,611,1
"102","list1","Exp","1",3,"not all","3","3","4","4","4",27,"second_half",1353,1120,1511,577,1
"102","list1","Exp","1",15,"all","3","1","2","2","2",28,"second_half",1357,943,1463,547,1
"102","list1","Exp","3",5,"all","3","3","4","4","4",29,"second_half",1193,756,1377,500,1
"102","list1","Exp","4",14,"none","3","3","3","3","3",30,"second_half",1116,946,2625,601,1
"102","list1","Filler","2",29,"three","3","1","1","1","1",31,"second_half",1064,1356,1567,1332,1
"102","list1","Exp","1",23,"some","3","3","1","2","2",32,"second_half",1237,686,1135,1432,1
"81","list1","Exp","2",2,"all","1","1","1","1","1",1,"first_half",1601,1004,1677,900,1
"81","list1","Exp","4",21,"all","1","3","3","3","3",2,"first_half",2162,1791,1486,843,1
"81","list1","Exp","3",1,"some","3","3","4","4","4",3,"first_half",1451,1239,1754,785,1
"81","list1","Exp","3",5,"all","4","4","4","4","4",4,"first_half",1420,1134,1678,717,1
"81","list1","Exp","1",3,"not all","3","3","4","4","4",5,"first_half",1722,872,1980,1489,1
"81","list1","Filler","1",24,"zero","3","3","2","2","2",6,"first_half",1609,733,1868,1040,1
"81","list1","Exp","1",10,"not all","2","2","2","2","2",7,"first_half",2691,966,1609,616,1
"81","list1","Filler","3",27,"two","3","3","3","4","4",8,"first_half",2513,5516,2337,1311,1
"81","list1","Filler","3",20,"five","3","3","4","4","4",9,"first_half",6317,1652,1934,1882,1
"81","list1","Exp","2",22,"not all","3","1","1","1","1",10,"first_half",4146,1533,2082,2685,1
"81","list1","Filler","4",32,"five","1","3","3","3","3",11,"first_half",1224,1593,1393,1061,1
"81","list1","Filler","2",26,"zero","3","1","1","1","1",12,"first_half",14533,1816,2532,2075,1
"81","list1","Exp","2",4,"some","3","1","1","1","1",13,"first_half",5457,1492,2609,957,1
"81","list1","Filler","2",12,"five","3","1","1","1","1",14,"first_half",1798,1975,2020,1347,1
"81","list1","Exp","4",17,"not all","1","3","3","3","3",15,"first_half",955,1422,1572,633,1
"81","list1","Exp","4",6,"some","3","3","3","3","3",16,"second_half",1123,1201,1512,972,1
"81","list1","Filler","3",30,"three","1","3","3","4","4",17,"second_half",1900,1857,6726,1775,1
"81","list1","Exp","2",7,"none","3","1","1","1","1",18,"second_half",4424,1472,1978,1726,1
"81","list1","Exp","3",9,"none","3","3","4","4","4",19,"second_half",4370,812,2165,527,1
"81","list1","Filler","4",13,"three","3","3","3","3","3",20,"second_half",1346,1616,1447,564,1
"81","list1","Exp","1",18,"none","3","1","2","2","2",21,"second_half",1367,1614,1457,697,1
"81","list1","Filler","2",29,"three","3","1","1","1","1",22,"second_half",2174,1620,804,1285,1
"81","list1","Filler","3",8,"two","1","3","4","4","4",23,"second_half",1459,1399,1856,584,1
"81","list1","Exp","1",23,"some","4","2","2","2","2",24,"second_half",1036,1531,1006,686,1
"81","list1","Filler","1",11,"three","3","3","2","2","2",25,"second_half",2986,1848,1634,665,1
"81","list1","Filler","4",19,"zero","1","3","3","3","3",26,"second_half",1555,1350,1290,532,1
"81","list1","Filler","4",25,"zero","3","3","3","3","3",27,"second_half",1749,2520,1290,1440,1
"81","list1","Exp","1",15,"all","3","1","2","2","2",28,"second_half",1289,1210,1782,221,1
"81","list1","Exp","4",14,"none","1","3","3","3","3",29,"second_half",2038,1358,1364,654,1
"81","list1","Filler","1",31,"five","3","1","1","2","2",30,"second_half",1377,1353,1353,1223,1
"81","list1","Filler","1",28,"two","3","1","1","2","2",31,"second_half",1700,1342,1001,2689,1
"81","list1","Filler","2",16,"two","2","2","1","1","1",32,"second_half",1228,1538,1423,766,1
"98","list1","Filler","2",29,"three","3","1","2","1","1",1,"first_half",7660,852,1799,892,1
"98","list1","Filler","2",16,"two","3","1","1","1","1",2,"first_half",1806,828,1172,932,1
"98","list1","Exp","2",2,"all","1","1","1","1","1",3,"first_half",1109,770,1005,538,1
"98","list1","Filler","4",13,"three","1","3","3","3","3",4,"first_half",1759,1004,1205,538,1
"98","list1","Filler","3",27,"two","1","3","3","4","4",5,"first_half",1051,828,1454,859,1
"98","list1","Exp","4",17,"not all","4","4","3","3","3",6,"first_half",1518,594,1662,1126,1
"98","list1","Exp","1",15,"all","1","1","2","2","2",7,"first_half",1180,1004,1093,755,1
"98","list1","Exp","1",3,"not all","3","3","4","4","4",8,"first_half",1189,731,1068,586,1
"98","list1","Exp","4",14,"none","1","3","3","3","3",9,"first_half",1213,924,900,651,1
"98","list1","Filler","3",20,"five","3","3","4","4","4",10,"first_half",1332,570,981,739,1
"98","list1","Exp","3",9,"none","1","3","4","4","4",11,"first_half",1878,1006,995,507,1
"98","list1","Filler","1",31,"five","1","1","1","2","2",12,"first_half",1808,675,834,925,1
"98","list1","Filler","1",28,"two","3","1","1","2","2",13,"first_half",1011,1183,2369,899,1
"98","list1","Exp","4",21,"all","1","3","3","3","3",14,"first_half",971,1463,2788,546,1
"98","list1","Filler","4",32,"five","3","3","3","3","3",15,"first_half",1638,819,924,755,1
"98","list1","Filler","3",8,"two","1","3","4","4","4",16,"second_half",1542,988,875,523,1
"98","list1","Exp","3",5,"all","1","3","4","4","4",17,"second_half",7471,1012,811,451,1
"98","list1","Exp","1",10,"not all","1","1","2","2","2",18,"second_half",1051,610,1085,514,1
"98","list1","Filler","2",12,"five","1","1","1","1","1",19,"second_half",979,594,1261,555,1
"98","list1","Exp","2",7,"none","1","1","1","1","1",20,"second_half",1011,651,859,587,1
"98","list1","Exp","4",6,"some","3","3","3","3","3",21,"second_half",1003,715,796,1188,1
"98","list1","Filler","1",11,"three","3","1","2","2","2",22,"second_half",658,915,812,523,1
"98","list1","Exp","3",1,"some","1","3","4","4","4",23,"second_half",1043,883,731,410,1
"98","list1","Filler","1",24,"zero","3","1","2","2","2",24,"second_half",1051,989,1013,803,1
"98","list1","Exp","2",22,"not all","1","1","1","1","1",25,"second_half",971,900,755,577,1
"98","list1","Exp","1",23,"some","3","1","2","2","2",26,"second_half",867,1165,851,563,1
"98","list1","Filler","4",25,"zero","3","3","3","3","3",27,"second_half",1083,634,908,1060,1
"98","list1","Filler","4",19,"zero","1","3","3","3","3",28,"second_half",826,949,867,434,1
"98","list1","Exp","1",18,"none","1","1","2","2","2",29,"second_half",12187,987,1156,402,1
"98","list1","Filler","2",26,"zero","3","1","1","1","1",30,"second_half",1019,883,681,862,1
"98","list1","Exp","2",4,"some","4","1","1","1","1",31,"second_half",922,1044,1004,386,1
"98","list1","Filler","3",30,"three","1","3","3","4","4",32,"second_half",1131,803,1069,1261,1
"76","list1","Filler","2",26,"zero","3","1","2","1","1",1,"first_half",1529,1135,2732,1362,1
"76","list1","Exp","2",7,"none","1","1","1","1","1",2,"first_half",1370,892,1193,699,1
"76","list1","Filler","4",19,"zero","2","4","3","3","3",3,"first_half",1429,1811,1841,1549,1
"76","list1","Filler","1",31,"five","1","1","1","2","2",4,"first_half",1511,664,1791,1496,1
"76","list1","Filler","3",20,"five","1","3","4","4","4",5,"first_half",2459,1526,1972,993,1
"76","list1","Filler","3",8,"two","2","2","2","4","4",6,"first_half",1457,1015,1409,2099,1
"76","list1","Filler","4",13,"three","1","3","3","3","3",7,"first_half",4236,1503,1819,857,1
"76","list1","Filler","3",27,"two","3","3","3","4","4",8,"first_half",1662,995,1278,1392,1
"76","list1","Filler","4",25,"zero","4","4","3","3","3",9,"first_half",1406,700,1794,822,1
"76","list1","Exp","1",23,"some","2","2","2","2","2",10,"first_half",1336,647,1795,813,1
"76","list1","Filler","2",12,"five","3","1","1","1","1",11,"first_half",1402,1140,1194,901,1
"76","list1","Filler","4",32,"five","2","3","3","3","3",12,"first_half",1287,1147,903,1205,1
"76","list1","Exp","3",1,"some","3","3","4","4","4",13,"first_half",1204,738,2003,693,1
"76","list1","Exp","1",15,"all","1","1","2","2","2",14,"first_half",1685,665,1279,457,1
"76","list1","Exp","1",18,"none","1","1","2","2","2",15,"first_half",1444,756,1505,599,1
"76","list1","Exp","1",3,"not all","3","3","4","4","4",16,"second_half",1671,1183,3142,664,1
"76","list1","Exp","2",2,"all","1","1","1","1","1",17,"second_half",1576,754,1184,767,1
"76","list1","Exp","2",4,"some","1","1","1","1","1",18,"second_half",1607,560,1688,1060,1
"76","list1","Filler","3",30,"three","3","3","4","4","4",19,"second_half",1269,2974,1817,677,1
"76","list1","Exp","4",17,"not all","3","3","3","3","3",20,"second_half",1391,737,1823,966,1
"76","list1","Exp","4",14,"none","1","1","3","3","3",21,"second_half",1286,505,1602,679,1
"76","list1","Filler","2",29,"three","2","2","2","1","1",23,"second_half",2158,573,9970,1662,1
"76","list1","Filler","1",11,"three","1","1","2","2","2",24,"second_half",134,2220,1571,121,1
"76","list1","Filler","1",24,"zero","3","3","2","2","2",25,"second_half",3628,648,1129,1375,1
"76","list1","Exp","3",9,"none","2","3","4","4","4",26,"second_half",1821,1101,6332,1299,1
"76","list1","Exp","3",5,"all","4","4","4","4","4",27,"second_half",825,1673,1748,1050,1
"76","list1","Filler","2",16,"two","1","1","1","1","1",28,"second_half",1725,743,1457,626,1
"76","list1","Exp","4",6,"some","3","3","3","3","3",29,"second_half",1295,523,1519,889,1
"76","list1","Exp","1",10,"not all","1","1","2","2","2",30,"second_half",1140,567,1407,656,1
"76","list1","Exp","4",21,"all","1","1","3","3","3",31,"second_half",1238,442,1057,573,1
"76","list1","Exp","2",22,"not all","1","1","1","1","1",32,"second_half",1158,654,3278,476,1
"85","list1","Exp","3",1,"some","3","3","3","4","4",1,"first_half",1823,1031,1132,1625,1
"85","list1","Filler","2",26,"zero","1","2","1","1","1",2,"first_half",3562,1210,3080,1079,1
"85","list1","Exp","2",2,"all","3","2","1","1","1",3,"first_half",1946,1547,1448,908,1
"85","list1","Exp","1",3,"not all","2","3","4","4","4",4,"first_half",1524,1518,2088,614,1
"85","list1","Filler","3",20,"five","3","3","4","4","4",5,"first_half",2899,741,1601,1192,1
"85","list1","Exp","2",22,"not all","4","2","1","1","1",6,"first_half",2118,1771,3627,539,1
"85","list1","Filler","1",31,"five","1","1","1","2","2",7,"first_half",1107,717,1224,961,1
"85","list1","Filler","2",16,"two","1","1","1","1","1",8,"first_half",2735,924,2047,986,1
"85","list1","Filler","1",11,"three","1","1","2","2","2",9,"first_half",1299,886,1903,593,1
"85","list1","Exp","4",6,"some","2","4","3","3","3",10,"first_half",1459,1672,1278,1048,1
"85","list1","Exp","4",14,"none","1","3","3","3","3",12,"first_half",3277,1517,1440,578,1
"85","list1","Exp","4",21,"all","3","3","3","3","3",13,"first_half",1160,623,1464,585,1
"85","list1","Exp","4",17,"not all","3","3","3","3","3",14,"first_half",929,801,1209,678,1
"85","list1","Exp","1",15,"all","3","1","2","2","2",15,"first_half",892,1531,1410,739,1
"85","list1","Exp","2",4,"some","2","2","1","1","1",16,"second_half",1778,661,4135,477,1
"85","list1","Exp","3",9,"none","1","4","4","4","4",17,"second_half",908,1417,1725,600,1
"85","list1","Filler","3",30,"three","4","4","4","4","4",18,"second_half",922,609,1924,1888,1
"85","list1","Exp","1",23,"some","4","1","2","2","2",19,"second_half",844,1834,1632,847,1
"85","list1","Filler","1",24,"zero","1","1","2","2","2",20,"second_half",1030,669,1718,585,1
"85","list1","Exp","1",10,"not all","2","2","2","2","2",21,"second_half",1615,963,2664,1055,1
"85","list1","Filler","4",32,"five","2","4","4","3","3",22,"second_half",915,1415,1272,917,1
"85","list1","Filler","3",8,"two","3","3","4","4","4",23,"second_half",8072,745,1189,593,1
"85","list1","Exp","2",7,"none","3","1","1","1","1",25,"second_half",4234,1532,1934,493,1
"85","list1","Filler","4",19,"zero","1","3","3","3","3",26,"second_half",2308,1232,1430,1280,1
"85","list1","Filler","4",13,"three","3","3","3","3","3",27,"second_half",738,653,2243,522,1
"85","list1","Filler","2",12,"five","3","3","1","1","1",28,"second_half",777,970,2155,517,1
"85","list1","Exp","3",5,"all","1","4","4","4","4",29,"second_half",922,1317,887,538,1
"85","list1","Exp","1",18,"none","4","2","2","2","2",30,"second_half",861,1256,1625,624,1
"85","list1","Filler","1",28,"two","2","2","2","2","2",31,"second_half",992,708,1624,1456,1
"85","list1","Filler","3",27,"two","2","4","4","4","4",32,"second_half",697,1587,1587,1337,1
"73","list1","Exp","2",22,"not all","3","1","1","1","1",1,"first_half",3238,2132,3550,692,1
"73","list1","Filler","2",26,"zero","3","1","1","1","1",2,"first_half",3156,1671,3227,1713,1
"73","list1","Filler","3",27,"two","3","3","3","4","4",3,"first_half",2411,1432,2390,1048,1
"73","list1","Exp","1",15,"all","2","2","2","2","2",4,"first_half",4334,1532,1276,605,1
"73","list1","Exp","2",4,"some","1","1","1","1","1",5,"first_half",2088,1180,1580,1170,1
"73","list1","Filler","3",20,"five","4","4","4","4","4",6,"first_half",1641,799,1711,506,1
"73","list1","Exp","1",10,"not all","3","2","2","2","2",7,"first_half",1499,3063,1755,684,1
"73","list1","Filler","4",13,"three","3","3","3","3","3",8,"first_half",1292,927,2592,616,1
"73","list1","Filler","2",12,"five","3","1","1","1","1",9,"first_half",1555,1483,1503,1026,1
"73","list1","Exp","4",21,"all","2","4","3","3","3",10,"first_half",1804,1803,1362,522,1
"73","list1","Filler","2",29,"three","3","1","1","1","1",11,"first_half",1418,1192,2266,828,1
"73","list1","Filler","2",16,"two","4","1","1","1","1",12,"first_half",1739,1183,1340,585,1
"73","list1","Exp","1",23,"some","3","1","2","2","2",13,"first_half",1530,1572,2166,821,1
"73","list1","Filler","1",31,"five","1","1","1","2","2",14,"first_half",1504,590,1592,1070,1
"73","list1","Filler","3",8,"two","3","3","4","4","4",15,"first_half",1410,1376,3789,604,1
"73","list1","Exp","3",9,"none","1","3","4","4","4",16,"second_half",1247,1033,1934,628,1
"73","list1","Exp","4",6,"some","3","3","3","3","3",17,"second_half",1097,1011,1405,742,1
"73","list1","Filler","1",24,"zero","3","3","2","2","2",18,"second_half",1311,3173,2437,608,1
"73","list1","Exp","1",18,"none","4","2","2","2","2",19,"second_half",1110,1257,1418,835,1
"73","list1","Exp","4",17,"not all","3","3","3","3","3",20,"second_half",1413,804,2054,586,1
"73","list1","Filler","1",11,"three","3","1","2","2","2",21,"second_half",1153,1411,1368,592,1
"73","list1","Filler","4",32,"five","3","3","3","3","3",22,"second_half",1462,678,1332,851,1
"73","list1","Exp","3",1,"some","3","3","4","4","4",23,"second_half",1540,925,1500,703,1
"73","list1","Exp","4",14,"none","4","4","3","3","3",24,"second_half",1450,1140,1697,428,1
"73","list1","Filler","4",25,"zero","1","3","3","3","3",25,"second_half",966,1826,1535,1139,1
"73","list1","Exp","1",3,"not all","3","3","4","4","4",26,"second_half",1125,765,3624,618,1
"73","list1","Filler","3",30,"three","4","4","4","4","4",27,"second_half",1028,792,3120,965,1
"73","list1","Exp","2",7,"none","4","2","2","1","1",28,"second_half",1324,1213,1140,1876,1
"73","list1","Exp","2",2,"all","1","1","1","1","1",30,"second_half",1275,1267,1237,577,1
"73","list1","Filler","1",28,"two","3","1","1","2","2",31,"second_half",1221,1447,1719,986,1
"73","list1","Filler","4",19,"zero","4","4","3","3","3",32,"second_half",1290,1273,1555,1107,1
"97","list3","Exp","1",14,"not all","1","1","2","2","2",1,"first_half",2203,1471,2135,1221,1
"97","list3","Filler","1",31,"five","4","4","2","2","2",2,"first_half",3054,862,2284,833,1
"97","list3","Filler","3",27,"two","1","3","3","4","4",3,"first_half",4167,2134,2274,971,1
"97","list3","Filler","1",12,"zero","3","2","2","2","2",4,"first_half",2154,2604,1423,692,1
"97","list3","Filler","4",20,"three","2","4","3","3","3",5,"first_half",1492,1912,1364,541,1
"97","list3","Exp","1",3,"none","3","3","2","2","2",6,"first_half",3897,1091,4930,772,1
"97","list3","Filler","2",16,"five","2","2","1","1","1",7,"first_half",1522,2325,1243,6442,1
"97","list3","Exp","2",6,"all","1","1","1","1","1",8,"first_half",1812,1994,1172,773,1
"97","list3","Filler","2",29,"three","4","4","2","1","1",9,"first_half",1951,582,2485,1073,1
"97","list3","Filler","4",13,"zero","3","3","3","3","3",10,"first_half",2235,1180,1292,782,1
"97","list3","Exp","2",9,"not all","2","2","1","1","1",11,"first_half",1372,1272,1774,741,1
"97","list3","Filler","2",26,"zero","1","1","1","1","1",12,"first_half",1731,1644,1202,760,1
"97","list3","Exp","2",2,"some","3","2","1","1","1",13,"first_half",1622,2314,1342,591,1
"97","list3","Filler","3",30,"three","2","2","3","4","4",14,"first_half",8033,1132,2946,1082,1
"97","list3","Exp","3",23,"all","4","4","4","4","4",15,"first_half",1392,1212,771,511,1
"97","list3","Exp","4",4,"all","4","4","3","3","3",16,"second_half",1491,1072,1321,1032,1
"97","list3","Exp","3",5,"some","3","3","4","4","4",17,"second_half",1372,1041,1384,780,1
"97","list3","Exp","2",17,"none","1","1","1","1","1",18,"second_half",1643,1212,1082,631,1
"97","list3","Exp","1",15,"some","3","1","2","2","2",19,"second_half",3434,2254,1232,540,1
"97","list3","Filler","4",25,"zero","3","3","3","3","3",21,"second_half",3996,1123,1572,801,1
"97","list3","Filler","1",28,"two","3","2","2","2","2",22,"second_half",2303,2325,1502,721,1
"97","list3","Filler","3",24,"two","1","3","4","4","4",23,"second_half",1322,1583,1314,1372,1
"97","list3","Exp","4",10,"none","2","3","3","3","3",24,"second_half",1672,1563,911,691,1
"97","list3","Filler","3",8,"five","3","3","4","4","4",25,"second_half",4819,1212,1262,1072,1
"97","list3","Filler","1",19,"three","4","2","2","2","2",26,"second_half",2003,1985,1071,872,1
"97","list3","Exp","4",18,"not all","1","4","4","3","3",27,"second_half",2866,1921,1052,1033,1
"97","list3","Exp","3",7,"not all","3","3","4","4","4",28,"second_half",2492,1534,1693,802,1
"97","list3","Filler","2",11,"two","4","2","1","1","1",29,"second_half",1953,1863,1614,862,1
"97","list3","Exp","1",1,"all","3","2","2","2","2",30,"second_half",2043,1744,1082,772,1
"97","list3","Exp","3",22,"none","4","4","4","4","4",31,"second_half",2324,640,1143,1293,1
"97","list3","Filler","4",32,"five","3","3","3","3","3",32,"second_half",2614,691,1273,782,1
"110","list3","Exp","4",10,"none","2","4","3","3","3",1,"first_half",1530,1848,1540,754,1
"110","list3","Exp","3",5,"some","1","3","4","4","4",2,"first_half",2719,1041,1175,1452,1
"110","list3","Exp","4",18,"not all","2","3","3","3","3",3,"first_half",1582,1244,2704,1144,1
"110","list3","Filler","4",25,"zero","1","4","4","3","3",4,"first_half",3846,1688,1680,1084,1
"110","list3","Filler","1",19,"three","2","2","2","2","2",5,"first_half",2994,1416,1272,904,1
"110","list3","Filler","4",32,"five","1","3","3","3","3",6,"first_half",2544,1885,2665,1068,1
"110","list3","Exp","2",17,"none","1","1","1","1","1",7,"first_half",1276,1097,1225,1019,1
"110","list3","Exp","2",2,"some","2","2","1","1","1",8,"first_half",1199,717,1175,1992,1
"110","list3","Filler","3",24,"two","1","4","4","4","4",9,"first_half",1361,1260,860,468,1
"110","list3","Filler","3",8,"five","2","3","4","4","4",10,"first_half",1883,1092,976,766,1
"110","list3","Filler","1",28,"two","1","1","1","2","2",11,"first_half",1871,1084,748,1984,1
"110","list3","Exp","1",14,"not all","2","2","2","2","2",12,"first_half",3125,1124,1476,968,1
"110","list3","Exp","1",3,"none","3","1","2","2","2",13,"first_half",2838,1016,1276,808,1
"110","list3","Filler","2",16,"five","1","1","1","1","1",14,"first_half",1276,584,764,616,1
"110","list3","Filler","3",27,"two","4","4","4","4","4",15,"first_half",1862,680,2208,1028,1
"110","list3","Filler","2",29,"three","1","1","1","1","1",16,"second_half",1416,684,1322,800,1
"110","list3","Filler","4",13,"zero","2","4","3","3","3",17,"second_half",1096,1548,1096,428,1
"110","list3","Exp","3",22,"none","1","4","4","4","4",18,"second_half",848,1172,1066,1284,1
"110","list3","Filler","3",30,"three","3","3","3","4","4",19,"second_half",1752,612,1508,1336,1
"110","list3","Exp","2",9,"not all","1","1","1","1","1",20,"second_half",1066,472,1208,1400,1
"110","list3","Exp","3",7,"not all","1","3","4","4","4",21,"second_half",808,1684,1724,786,1
"110","list3","Exp","2",6,"all","3","2","1","1","1",22,"second_half",1256,1436,1252,708,1
"110","list3","Exp","3",23,"all","1","3","4","4","4",23,"second_half",3170,1064,940,416,1
"110","list3","Exp","4",21,"some","2","4","4","3","3",24,"second_half",1136,1392,256,636,1
"110","list3","Filler","2",11,"two","2","2","1","1","1",25,"second_half",2922,536,964,620,1
"110","list3","Filler","2",26,"zero","1","1","1","1","1",26,"second_half",708,608,1144,748,1
"110","list3","Exp","1",15,"some","4","4","2","2","2",27,"second_half",1446,628,2380,364,1
"110","list3","Filler","1",31,"five","1","1","1","2","2",28,"second_half",1208,564,588,752,1
"110","list3","Filler","1",12,"zero","2","2","2","2","2",29,"second_half",1198,972,740,528,1
"110","list3","Filler","4",20,"three","2","2","3","3","3",30,"second_half",1515,540,2717,433,1
"110","list3","Exp","4",4,"all","3","3","3","3","3",31,"second_half",1255,608,901,547,1
"110","list3","Exp","1",1,"all","1","1","2","2","2",32,"second_half",1379,596,836,584,1
"84","list3","Filler","2",26,"zero","3","2","2","1","1",1,"first_half",1333,4388,1452,903,1
"84","list3","Exp","4",21,"some","2","3","3","3","3",3,"first_half",2303,1328,2794,1747,1
"84","list3","Filler","4",20,"three","3","3","3","3","3",4,"first_half",5403,1182,2111,749,1
"84","list3","Filler","1",28,"two","4","2","1","2","2",5,"first_half",1400,1479,1610,1239,1
"84","list3","Exp","1",3,"none","3","1","2","2","2",6,"first_half",5872,1262,1500,546,1
"84","list3","Filler","2",29,"three","4","1","2","1","1",7,"first_half",2096,1671,2492,970,1
"84","list3","Filler","2",11,"two","1","1","1","1","1",8,"first_half",1179,866,2054,666,1
"84","list3","Filler","3",8,"five","3","3","4","4","4",9,"first_half",1527,1147,962,904,1
"84","list3","Exp","4",18,"not all","3","3","3","3","3",10,"first_half",1084,969,2192,4214,1
"84","list3","Exp","2",9,"not all","1","1","1","1","1",11,"first_half",1612,1479,1324,540,1
"84","list3","Filler","3",30,"three","1","4","4","4","4",12,"first_half",1081,1410,1507,737,1
"84","list3","Filler","4",25,"zero","3","3","3","3","3",13,"first_half",1161,614,1171,905,1
"84","list3","Exp","1",15,"some","3","1","2","2","2",14,"first_half",855,1153,1552,548,1
"84","list3","Filler","4",13,"zero","1","4","3","3","3",15,"first_half",1058,1516,1884,404,1
"84","list3","Filler","2",16,"five","3","1","1","1","1",16,"second_half",757,839,1280,562,1
"84","list3","Exp","4",10,"none","1","4","4","3","3",17,"second_half",757,1599,1613,1207,1
"84","list3","Exp","3",22,"none","3","3","4","4","4",18,"second_half",787,677,1279,475,1
"84","list3","Exp","3",5,"some","3","3","4","4","4",19,"second_half",1021,753,911,596,1
"84","list3","Exp","4",4,"all","1","3","3","3","3",20,"second_half",1067,1278,2534,916,1
"84","list3","Filler","1",31,"five","3","1","2","2","2",21,"second_half",9735,1063,950,531,1
"84","list3","Exp","2",2,"some","1","1","1","1","1",22,"second_half",943,796,712,570,1
"84","list3","Exp","2",6,"all","1","1","1","1","1",23,"second_half",677,952,678,465,1
"84","list3","Filler","1",12,"zero","3","1","2","2","2",24,"second_half",986,927,937,410,1
"84","list3","Filler","1",19,"three","1","1","2","2","2",25,"second_half",835,509,895,528,1
"84","list3","Exp","3",23,"all","1","3","4","4","4",26,"second_half",792,926,1330,4809,1
"84","list3","Filler","3",24,"two","1","3","4","4","4",27,"second_half",8920,937,1833,1069,1
"84","list3","Exp","1",1,"all","3","1","2","2","2",28,"second_half",6579,1535,2422,902,1
"84","list3","Filler","4",32,"five","3","3","3","3","3",29,"second_half",1351,716,930,1752,1
"84","list3","Exp","3",7,"not all","3","3","4","4","4",30,"second_half",5092,601,2450,1446,1
"84","list3","Exp","2",17,"none","1","1","1","1","1",31,"second_half",3180,523,1191,430,1
"84","list3","Exp","1",14,"not all","1","1","2","2","2",32,"second_half",1030,798,3218,626,1
"77","list3","Filler","1",28,"two","1","1","1","2","2",1,"first_half",922,540,1971,1619,1
"77","list3","Exp","4",21,"some","2","3","3","3","3",2,"first_half",1235,1332,823,1866,1
"77","list3","Filler","2",26,"zero","3","1","1","1","1",3,"first_half",1406,859,1512,1120,1
"77","list3","Filler","3",8,"five","1","3","4","4","4",4,"first_half",793,760,1594,745,1
"77","list3","Filler","4",20,"three","4","4","3","3","3",5,"first_half",824,859,2265,1006,1
"77","list3","Filler","1",19,"three","1","1","2","2","2",6,"first_half",1292,769,2445,482,1
"77","list3","Filler","3",24,"two","4","4","4","4","4",7,"first_half",1374,636,1269,891,1
"77","list3","Exp","2",17,"none","4","2","1","1","1",8,"first_half",1544,1276,1643,704,1
"77","list3","Filler","3",30,"three","1","3","3","4","4",9,"first_half",671,932,1553,941,1
"77","list3","Exp","1",14,"not all","4","2","2","2","2",10,"first_half",825,753,2133,1505,1
"77","list3","Exp","4",4,"all","4","4","4","3","3",11,"first_half",1323,671,1153,622,1
"77","list3","Exp","1",3,"none","3","1","2","2","2",12,"first_half",711,1064,2011,604,1
"77","list3","Exp","2",6,"all","2","2","1","1","1",13,"first_half",1055,760,1170,564,1
"77","list3","Exp","2",2,"some","1","1","1","1","1",14,"first_half",686,768,745,719,1
"77","list3","Exp","3",5,"some","1","3","3","4","4",15,"first_half",1283,826,1161,915,1
"77","list3","Filler","4",25,"zero","4","4","4","3","3",16,"second_half",1447,1284,2306,1104,1
"77","list3","Filler","4",13,"zero","3","3","3","3","3",17,"second_half",1006,883,1037,598,1
"77","list3","Filler","2",11,"two","3","1","1","1","1",18,"second_half",1112,867,1300,621,1
"77","list3","Filler","2",16,"five","1","1","1","1","1",19,"second_half",809,573,956,622,1
"77","list3","Filler","4",32,"five","1","3","3","3","3",20,"second_half",809,826,891,515,1
"77","list3","Exp","1",1,"all","3","1","2","2","2",21,"second_half",809,907,1414,442,1
"77","list3","Exp","1",15,"some","1","1","2","2","2",22,"second_half",989,646,997,426,1
"77","list3","Exp","3",7,"not all","2","3","3","4","4",23,"second_half",826,1275,1815,401,1
"77","list3","Exp","2",9,"not all","1","1","1","1","1",24,"second_half",1316,516,1357,793,1
"77","list3","Filler","1",31,"five","1","1","1","2","2",25,"second_half",654,548,753,750,1
"77","list3","Exp","4",10,"none","2","3","3","3","3",26,"second_half",582,892,1504,867,1
"77","list3","Filler","1",12,"zero","3","1","2","2","2",27,"second_half",1087,786,1136,432,1
"77","list3","Exp","3",22,"none","3","3","4","4","4",28,"second_half",1702,695,1300,491,1
"77","list3","Filler","2",29,"three","4","2","2","1","1",29,"second_half",800,786,973,1151,1
"77","list3","Exp","3",23,"all","1","3","4","4","4",31,"second_half",4618,891,1309,490,1
"77","list3","Filler","3",27,"two","4","4","4","4","4",32,"second_half",686,524,1267,875,1
"106","list3","Exp","2",2,"some","1","1","1","1","1",1,"first_half",1164,948,1336,878,1
"106","list3","Filler","1",19,"three","1","1","2","2","2",2,"first_half",2131,732,1691,682,1
"106","list3","Filler","2",16,"five","3","1","1","1","1",3,"first_half",1326,1601,1424,716,1
"106","list3","Filler","2",26,"zero","3","2","2","1","1",4,"first_half",1807,1552,1843,1745,1
"106","list3","Filler","3",27,"two","1","3","4","4","4",5,"first_half",1447,1230,1376,998,1
"106","list3","Filler","2",11,"two","4","2","1","1","1",6,"first_half",947,1055,988,547,1
"106","list3","Exp","2",9,"not all","3","1","1","1","1",7,"first_half",1455,1119,1648,732,1
"106","list3","Exp","4",18,"not all","1","3","3","3","3",8,"first_half",1029,1143,1125,1102,1
"106","list3","Exp","2",17,"none","3","2","1","1","1",9,"first_half",1117,1207,1980,771,1
"106","list3","Exp","3",5,"some","1","4","4","4","4",10,"first_half",2020,1261,1770,1167,1
"106","list3","Filler","4",32,"five","4","4","4","3","3",11,"first_half",964,925,1472,957,1
"106","list3","Filler","3",8,"five","3","3","4","4","4",12,"first_half",788,732,1215,738,1
"106","list3","Exp","1",1,"all","4","2","2","2","2",13,"first_half",1103,997,869,990,1
"106","list3","Filler","1",31,"five","2","2","2","2","2",14,"first_half",1046,603,1094,619,1
"106","list3","Filler","1",12,"zero","2","2","2","2","2",15,"first_half",924,628,2317,579,1
"106","list3","Filler","4",25,"zero","2","3","3","3","3",16,"second_half",1504,1127,683,860,1
"106","list3","Exp","4",21,"some","3","3","3","3","3",17,"second_half",884,596,773,1673,1
"106","list3","Filler","2",29,"three","3","1","1","1","1",18,"second_half",876,1110,2003,652,1
"106","list3","Exp","4",4,"all","1","3","3","3","3",19,"second_half",803,1070,1118,579,1
"106","list3","Exp","1",14,"not all","3","1","2","2","2",20,"second_half",1279,1037,1166,426,1
"106","list3","Exp","3",22,"none","2","3","4","4","4",21,"second_half",852,963,1571,428,1
"106","list3","Exp","3",23,"all","4","4","4","4","4",22,"second_half",755,707,1048,618,1
"106","list3","Exp","1",3,"none","4","1","2","2","2",23,"second_half",773,1238,1111,538,1
"106","list3","Exp","4",10,"none","2","3","3","3","3",24,"second_half",748,1440,3002,473,1
"106","list3","Exp","2",6,"all","3","1","1","1","1",25,"second_half",1020,976,770,459,1
"106","list3","Exp","1",15,"some","1","1","2","2","2",26,"second_half",908,523,1231,466,1
"106","list3","Filler","3",30,"three","2","3","3","4","4",27,"second_half",667,973,1754,1015,1
"106","list3","Filler","1",28,"two","4","1","1","2","2",28,"second_half",610,1449,1971,1303,1
"106","list3","Filler","4",20,"three","2","3","3","3","3",29,"second_half",812,1102,1086,539,1
"106","list3","Exp","3",7,"not all","3","3","4","4","4",30,"second_half",845,1375,1559,1266,1
"106","list3","Filler","4",13,"zero","3","3","3","3","3",31,"second_half",1149,635,1272,739,1
"106","list3","Filler","3",24,"two","3","3","4","4","4",32,"second_half",933,603,1197,597,1
"101","list3","Exp","4",18,"not all","3","3","3","3","3",1,"first_half",1081,953,2165,1915,1
"101","list3","Exp","2",17,"none","1","1","1","1","1",2,"first_half",1762,978,1403,946,1
"101","list3","Filler","1",19,"three","1","1","2","2","2",3,"first_half",1077,1099,1371,865,1
"101","list3","Exp","2",9,"not all","2","2","1","1","1",4,"first_half",1013,994,2100,770,1
"101","list3","Exp","4",10,"none","3","3","3","3","3",5,"first_half",1414,1266,1948,942,1
"101","list3","Filler","2",26,"zero","1","1","1","1","1",6,"first_half",1635,665,1307,809,1
"101","list3","Filler","1",12,"zero","1","1","2","2","2",7,"first_half",1526,818,1475,1010,1
"101","list3","Exp","2",6,"all","3","1","1","1","1",8,"first_half",1459,2533,1226,1082,1
"101","list3","Filler","1",31,"five","3","1","1","2","2",9,"first_half",1530,1058,1514,1074,1
"101","list3","Filler","3",30,"three","2","3","3","4","4",10,"first_half",1422,1138,2557,1181,1
"101","list3","Filler","2",16,"five","3","3","1","1","1",11,"first_half",1139,978,2344,962,1
"101","list3","Filler","4",13,"zero","3","3","3","3","3",12,"first_half",1443,1138,1358,826,1
"101","list3","Filler","4",20,"three","3","3","3","3","3",13,"first_half",1090,962,1631,673,1
"101","list3","Exp","1",1,"all","1","1","2","2","2",14,"first_half",1410,1026,1499,737,1
"101","list3","Filler","3",27,"two","1","1","4","4","4",15,"first_half",1210,685,4176,713,1
"101","list3","Exp","3",22,"none","3","3","4","4","4",16,"second_half",1150,962,2116,825,1
"101","list3","Exp","3",7,"not all","1","3","4","4","4",17,"second_half",1350,1358,1592,505,1
"101","list3","Filler","1",28,"two","4","4","2","2","2",18,"second_half",845,593,2565,746,1
"101","list3","Exp","1",14,"not all","2","2","2","2","2",19,"second_half",989,849,2165,818,1
"101","list3","Filler","2",29,"three","3","1","1","1","1",20,"second_half",2697,1449,1620,697,1
"101","list3","Exp","3",5,"some","1","3","4","4","4",21,"second_half",893,1234,1242,674,1
"101","list3","Filler","3",8,"five","1","3","4","4","4",22,"second_half",1078,1130,1290,417,1
"101","list3","Exp","3",23,"all","3","3","4","4","4",23,"second_half",1050,621,1363,456,1
"101","list3","Exp","2",2,"some","1","1","1","1","1",24,"second_half",1145,489,1014,665,1
"101","list3","Filler","3",24,"two","1","3","4","4","4",25,"second_half",793,1186,1054,465,1
"101","list3","Exp","1",3,"none","3","3","2","2","2",26,"second_half",1178,553,2460,441,1
"101","list3","Exp","4",21,"some","1","3","3","3","3",27,"second_half",1086,1114,1298,465,1
"101","list3","Exp","1",15,"some","3","1","2","2","2",28,"second_half",1275,977,1218,441,1
"101","list3","Filler","4",32,"five","3","3","3","3","3",29,"second_half",1421,762,873,481,1
"101","list3","Exp","4",4,"all","3","3","3","3","3",30,"second_half",889,673,1258,681,1
"101","list3","Filler","2",11,"two","3","3","1","1","1",31,"second_half",833,937,1262,738,1
"101","list3","Filler","4",25,"zero","3","3","3","3","3",32,"second_half",1385,553,1470,842,1
"93","list3","Exp","3",23,"all","1","3","4","4","4",1,"first_half",2799,1536,1694,658,1
"93","list3","Filler","3",8,"five","1","3","4","4","4",2,"first_half",2462,1587,1452,1561,1
"93","list3","Filler","2",11,"two","3","1","1","1","1",3,"first_half",1216,1523,1333,928,1
"93","list3","Filler","1",19,"three","1","1","2","2","2",4,"first_half",4602,2165,2793,2063,1
"93","list3","Filler","4",20,"three","1","3","3","3","3",5,"first_half",1818,1427,1660,698,1
"93","list3","Filler","4",13,"zero","3","3","3","3","3",6,"first_half",1375,1702,1812,713,1
"93","list3","Exp","1",15,"some","3","1","2","2","2",7,"first_half",2349,1656,3640,1882,1
"93","list3","Exp","2",9,"not all","2","2","1","1","1",8,"first_half",1135,1180,4868,2620,1
"93","list3","Exp","4",4,"all","1","3","3","3","3",9,"first_half",994,1509,1722,676,1
"93","list3","Exp","1",1,"all","3","1","2","2","2",10,"first_half",1219,1765,1817,1186,1
"93","list3","Filler","2",29,"three","3","1","1","1","1",12,"first_half",3750,1239,3036,1904,1
"93","list3","Filler","1",31,"five","1","1","1","2","2",13,"first_half",1053,1234,1402,1372,1
"93","list3","Filler","1",28,"two","1","1","1","2","2",14,"first_half",1504,1132,1889,1297,1
"93","list3","Exp","2",17,"none","2","2","1","1","1",15,"first_half",1349,1438,2002,817,1
"93","list3","Exp","3",5,"some","1","3","4","4","4",16,"second_half",998,1690,2812,758,1
"93","list3","Exp","4",10,"none","4","4","3","3","3",17,"second_half",960,1335,1488,715,1
"93","list3","Filler","3",30,"three","3","3","3","4","4",18,"second_half",919,977,2075,1409,1
"93","list3","Exp","2",2,"some","3","1","1","1","1",19,"second_half",1345,1520,1856,1402,1
"93","list3","Filler","3",27,"two","1","3","3","4","4",20,"second_half",1765,3240,2367,1305,1
"93","list3","Exp","3",7,"not all","3","3","4","4","4",21,"second_half",1336,1001,2067,738,1
"93","list3","Filler","2",16,"five","3","1","1","1","1",22,"second_half",1264,1588,1271,685,1
"93","list3","Filler","1",12,"zero","1","1","2","2","2",23,"second_half",979,1289,2152,717,1
"93","list3","Filler","3",24,"two","2","3","4","4","4",24,"second_half",1585,1835,1772,632,1
"93","list3","Filler","4",32,"five","4","4","4","3","3",25,"second_half",901,1217,1616,1341,1
"93","list3","Exp","3",22,"none","3","3","4","4","4",26,"second_half",967,972,1728,649,1
"93","list3","Filler","2",26,"zero","4","4","1","1","1",27,"second_half",837,1365,3607,1703,1
"93","list3","Exp","2",6,"all","1","1","1","1","1",28,"second_half",1039,1178,1973,1288,1
"93","list3","Exp","4",21,"some","1","3","3","3","3",29,"second_half",2574,1409,2402,2482,1
"93","list3","Exp","1",14,"not all","3","1","2","2","2",30,"second_half",938,1433,3621,1040,1
"93","list3","Exp","4",18,"not all","1","3","3","3","3",31,"second_half",1402,1447,1558,932,1
"93","list3","Exp","1",3,"none","3","1","2","2","2",32,"second_half",1371,1333,2089,668,1
"64","list3","Filler","2",11,"two","3","1","1","1","1",1,"first_half",1731,1592,1385,1212,1
"64","list3","Filler","4",13,"zero","1","3","3","3","3",2,"first_half",1528,1744,1682,1452,1
"64","list3","Filler","3",24,"two","3","3","4","4","4",3,"first_half",1231,1116,1243,1197,1
"64","list3","Filler","1",28,"two","3","2","2","2","2",4,"first_half",1148,1180,2438,1516,1
"64","list3","Filler","4",20,"three","3","3","3","3","3",5,"first_half",1042,1568,1250,1762,1
"64","list3","Exp","3",7,"not all","3","3","4","4","4",6,"first_half",1048,821,2673,1422,1
"64","list3","Filler","3",30,"three","2","4","4","4","4",7,"first_half",1514,1366,1898,951,1
"64","list3","Filler","2",26,"zero","3","1","1","1","1",8,"first_half",1246,2530,1916,702,1
"64","list3","Filler","4",32,"five","3","3","3","3","3",9,"first_half",1326,758,1144,656,1
"64","list3","Exp","2",2,"some","3","1","1","1","1",10,"first_half",674,1524,1330,530,1
"64","list3","Exp","4",18,"not all","2","3","3","3","3",11,"first_half",1668,1146,1594,1414,1
"64","list3","Filler","1",12,"zero","3","1","2","2","2",12,"first_half",1694,1108,2136,588,1
"64","list3","Filler","4",25,"zero","1","3","3","3","3",13,"first_half",1192,1286,1232,844,1
"64","list3","Filler","3",27,"two","1","3","3","4","4",14,"first_half",1568,939,1432,1256,1
"64","list3","Filler","1",19,"three","3","1","2","2","2",15,"first_half",1526,1042,1158,528,1
"64","list3","Exp","4",21,"some","1","3","3","3","3",16,"second_half",1337,1390,1710,1094,1
"64","list3","Filler","2",16,"five","3","1","1","1","1",17,"second_half",1233,1106,1260,500,1
"64","list3","Exp","1",1,"all","3","1","2","2","2",18,"second_half",912,1030,1442,572,1
"64","list3","Exp","4",10,"none","1","3","3","3","3",19,"second_half",1468,1917,1200,1126,1
"64","list3","Filler","1",31,"five","3","1","1","2","2",20,"second_half",1515,1576,802,1136,1
"64","list3","Exp","1",3,"none","2","2","2","2","2",21,"second_half",2671,2156,2156,564,1
"64","list3","Exp","2",17,"none","3","1","1","1","1",22,"second_half",1171,2644,1362,538,1
"64","list3","Exp","1",15,"some","1","1","2","2","2",23,"second_half",726,958,1146,508,1
"64","list3","Exp","2",9,"not all","2","2","1","1","1",24,"second_half",2009,1184,2638,856,1
"64","list3","Exp","3",5,"some","1","3","4","4","4",25,"second_half",834,950,1836,482,1
"64","list3","Filler","3",8,"five","3","3","4","4","4",26,"second_half",933,1670,1177,408,1
"64","list3","Exp","1",14,"not all","3","1","2","2","2",27,"second_half",1042,1034,1136,430,1
"64","list3","Exp","2",6,"all","2","2","1","1","1",28,"second_half",1030,2950,1281,499,1
"64","list3","Filler","2",29,"three","1","1","1","1","1",29,"second_half",1374,1890,1338,1042,1
"64","list3","Exp","3",22,"none","1","3","4","4","4",30,"second_half",984,1309,2027,346,1
"64","list3","Exp","3",23,"all","3","3","4","4","4",31,"second_half",2323,937,1146,398,1
"64","list3","Exp","4",4,"all","3","3","3","3","3",32,"second_half",1086,1342,1090,466,1
"68","list3","Exp","2",9,"not all","3","2","1","1","1",1,"first_half",1383,1462,2374,911,1
"68","list3","Filler","3",27,"two","3","3","3","4","4",2,"first_half",2429,912,2205,1024,1
"68","list3","Filler","4",25,"zero","4","4","4","3","3",3,"first_half",6637,844,1507,1328,1
"68","list3","Exp","2",2,"some","1","1","1","1","1",4,"first_half",1496,552,1271,967,1
"68","list3","Exp","1",14,"not all","1","1","2","2","2",5,"first_half",798,720,2115,2093,1
"68","list3","Filler","2",11,"two","1","1","1","1","1",6,"first_half",1000,552,1440,698,1
"68","list3","Filler","3",24,"two","1","3","4","4","4",7,"first_half",765,1383,1114,642,1
"68","list3","Exp","2",17,"none","4","2","1","1","1",8,"first_half",1203,1519,1452,1090,1
"68","list3","Exp","4",4,"all","1","3","3","3","3",9,"first_half",1025,1136,1181,484,1
"68","list3","Exp","1",15,"some","3","2","2","2","2",10,"first_half",866,1732,923,653,1
"68","list3","Exp","3",7,"not all","2","2","4","4","4",11,"first_half",1012,4050,2419,394,1
"68","list3","Exp","4",21,"some","4","4","3","3","3",12,"first_half",1057,664,1226,562,1
"68","list3","Filler","3",8,"five","3","3","4","4","4",13,"first_half",1260,990,1744,562,1
"68","list3","Filler","1",31,"five","4","2","2","2","2",14,"first_half",967,1271,1159,787,1
"68","list3","Filler","1",12,"zero","2","2","2","2","2",15,"first_half",1237,697,1013,743,1
"68","list3","Filler","2",29,"three","4","2","2","1","1",16,"second_half",1338,1530,1609,1418,1
"68","list3","Filler","2",16,"five","1","1","1","1","1",17,"second_half",900,551,1035,653,1
"68","list3","Exp","4",10,"none","1","3","3","3","3",18,"second_half",1001,1012,934,461,1
"68","list3","Exp","3",23,"all","3","3","4","4","4",19,"second_half",686,495,1721,416,1
"68","list3","Filler","4",32,"five","4","4","4","3","3",20,"second_half",743,676,854,933,1
"68","list3","Exp","4",18,"not all","3","3","4","3","3",21,"second_half",877,596,1800,3882,1
"68","list3","Filler","2",26,"zero","3","3","1","1","1",22,"second_half",821,563,1575,799,1
"68","list3","Exp","1",3,"none","1","1","2","2","2",23,"second_half",742,495,2554,506,1
"68","list3","Filler","3",30,"three","3","3","3","4","4",24,"second_half",1799,630,1643,1012,1
"68","list3","Filler","1",28,"two","3","3","1","2","2",25,"second_half",1496,686,2498,776,1
"68","list3","Filler","1",19,"three","2","2","2","2","2",26,"second_half",708,777,1507,529,1
"68","list3","Exp","3",5,"some","1","3","4","4","4",27,"second_half",1868,1440,3026,686,1
"68","list3","Exp","2",6,"all","4","1","1","1","1",28,"second_half",698,1383,922,675,1
"68","list3","Filler","4",20,"three","2","4","3","3","3",29,"second_half",1102,1260,1372,439,1
"68","list3","Exp","1",1,"all","3","1","2","2","2",30,"second_half",619,1046,1136,484,1
"68","list3","Exp","3",22,"none","1","3","4","4","4",31,"second_half",945,945,1845,495,1
"68","list3","Filler","4",13,"zero","3","3","3","3","3",32,"second_half",1316,551,1001,416,1
"80","list3","Filler","2",11,"two","1","1","1","1","1",1,"first_half",1701,1178,2801,1509,1
"80","list3","Filler","1",28,"two","4","2","2","2","2",2,"first_half",3044,1980,1565,1307,1
"80","list3","Exp","4",10,"none","4","4","3","3","3",3,"first_half",3094,994,1834,2254,1
"80","list3","Exp","1",1,"all","1","1","2","2","2",4,"first_half",2001,1300,2278,2130,1
"80","list3","Exp","2",17,"none","2","2","1","1","1",5,"first_half",2619,907,1725,2309,1
"80","list3","Exp","1",3,"none","2","2","2","2","2",6,"first_half",3365,1636,1725,2003,1
"80","list3","Exp","3",23,"all","1","3","4","4","4",7,"first_half",1661,1545,1620,1694,1
"80","list3","Filler","1",12,"zero","4","2","2","2","2",8,"first_half",2314,1525,2094,1545,1
"80","list3","Filler","4",13,"zero","1","4","3","3","3",9,"first_half",2087,1866,1524,3041,1
"80","list3","Exp","2",6,"all","3","2","1","1","1",10,"first_half",2009,1861,1674,1299,1
"80","list3","Filler","2",16,"five","2","2","1","1","1",11,"first_half",2214,1742,1978,1910,1
"80","list3","Exp","3",7,"not all","1","4","4","4","4",12,"first_half",1476,1810,4884,1646,1
"80","list3","Filler","1",19,"three","2","2","2","2","2",13,"first_half",2483,1179,1477,1148,1
"80","list3","Exp","1",14,"not all","2","2","2","2","2",14,"first_half",1091,1067,1541,1341,1
"80","list3","Filler","4",25,"zero","2","4","4","3","3",15,"first_half",1139,2143,2612,1613,1
"80","list3","Filler","3",30,"three","2","3","4","4","4",16,"second_half",1681,1589,2740,1742,1
"80","list3","Exp","1",15,"some","4","2","2","2","2",17,"second_half",1776,2103,1661,955,1
"80","list3","Filler","3",8,"five","2","3","4","4","4",18,"second_half",1019,1248,2134,1020,1
"80","list3","Exp","3",5,"some","4","4","4","4","4",19,"second_half",1384,1172,1260,1308,1
"80","list3","Filler","4",32,"five","4","4","4","3","3",20,"second_half",2576,1308,1573,1926,1
"80","list3","Filler","3",24,"two","2","4","4","4","4",21,"second_half",1632,1533,1356,1156,1
"80","list3","Filler","4",20,"three","2","4","3","3","3",23,"second_half",1059,1681,3066,1409,1
"80","list3","Exp","2",2,"some","4","1","1","1","1",25,"second_half",1579,1418,1171,1276,1
"80","list3","Filler","1",31,"five","4","2","2","2","2",26,"second_half",1642,1436,963,1452,1
"80","list3","Filler","2",26,"zero","1","1","1","1","1",27,"second_half",1777,1694,1051,1757,1
"80","list3","Exp","2",9,"not all","1","1","1","1","1",28,"second_half",1203,1075,1435,1341,1
"80","list3","Exp","4",21,"some","1","3","3","3","3",29,"second_half",1147,1312,1075,1300,1
"80","list3","Exp","4",4,"all","3","3","3","3","3",30,"second_half",1258,1212,1027,1125,1
"80","list3","Exp","4",18,"not all","3","3","3","3","3",31,"second_half",1418,1019,1099,899,1
"80","list3","Exp","3",22,"none","3","3","4","4","4",32,"second_half",1147,1046,2072,1828,1
"88","list3","Exp","3",5,"some","1","3","4","4","4",1,"first_half",1339,1224,1414,1274,1
"88","list3","Exp","4",18,"not all","4","4","3","3","3",2,"first_half",1142,929,5498,1759,1
"88","list3","Exp","1",3,"none","3","1","2","2","2",3,"first_half",1101,1570,4305,782,1
"88","list3","Filler","4",13,"zero","2","4","3","3","3",4,"first_half",978,1271,3496,871,1
"88","list3","Filler","1",12,"zero","3","1","2","2","2",5,"first_half",1140,1398,1686,977,1
"88","list3","Exp","3",22,"none","1","3","4","4","4",6,"first_half",2599,1041,1299,732,1
"88","list3","Exp","1",14,"not all","4","2","2","2","2",7,"first_half",1609,1383,2225,1275,1
"88","list3","Exp","2",2,"some","2","2","1","1","1",8,"first_half",854,888,2555,667,1
"88","list3","Exp","1",1,"all","1","1","2","2","2",9,"first_half",2530,1735,1579,591,1
"88","list3","Filler","2",16,"five","1","1","1","1","1",10,"first_half",1461,667,1380,683,1
"88","list3","Filler","1",19,"three","1","1","2","2","2",11,"first_half",912,945,1292,492,1
"88","list3","Exp","4",21,"some","2","3","3","3","3",12,"first_half",1076,1381,2500,748,1
"88","list3","Exp","2",17,"none","3","1","1","1","1",13,"first_half",1361,1513,2293,526,1
"88","list3","Exp","3",7,"not all","1","3","4","4","4",14,"first_half",1348,1520,1751,847,1
"88","list3","Filler","3",30,"three","4","4","4","4","4",15,"first_half",1051,723,1128,526,1
"88","list3","Filler","2",26,"zero","4","2","2","1","1",16,"second_half",747,1118,1109,1372,1
"88","list3","Filler","4",20,"three","1","3","3","3","3",17,"second_half",699,1067,1159,1103,1
"88","list3","Exp","1",15,"some","3","1","2","2","2",18,"second_half",729,1358,1258,642,1
"88","list3","Exp","2",6,"all","2","2","1","1","1",19,"second_half",753,797,1077,501,1
"88","list3","Filler","3",8,"five","2","4","4","4","4",20,"second_half",1737,1476,1702,575,1
"88","list3","Filler","2",29,"three","4","2","2","1","1",21,"second_half",707,962,2425,1044,1
"88","list3","Filler","3",24,"two","1","3","4","4","4",22,"second_half",821,1055,1535,558,1
"88","list3","Filler","3",27,"two","1","3","3","4","4",23,"second_half",1956,1076,2762,1209,1
"88","list3","Exp","3",23,"all","4","4","4","4","4",24,"second_half",953,1758,724,494,1
"88","list3","Filler","2",11,"two","4","2","1","1","1",25,"second_half",1446,905,1390,589,1
"88","list3","Filler","1",31,"five","1","1","1","2","2",26,"second_half",2531,666,905,813,1
"88","list3","Filler","1",28,"two","2","2","2","2","2",27,"second_half",706,832,1075,1603,1
"88","list3","Exp","4",4,"all","2","4","3","3","3",28,"second_half",862,1011,1241,502,1
"88","list3","Filler","4",25,"zero","3","3","3","3","3",29,"second_half",1150,1085,1520,1455,1
"88","list3","Exp","2",9,"not all","3","1","1","1","1",30,"second_half",2335,1258,1388,1085,1
"88","list3","Filler","4",32,"five","1","3","3","3","3",31,"second_half",1068,1922,1150,946,1
"88","list3","Exp","4",10,"none","3","3","3","3","3",32,"second_half",715,798,2234,518,1
"72","list3","Filler","2",11,"two","1","1","1","1","1",1,"first_half",1693,1213,2211,1311,1
"72","list3","Filler","1",31,"five","2","2","2","2","2",2,"first_half",2462,1074,2102,779,1
"72","list3","Filler","3",30,"three","4","4","4","4","4",3,"first_half",5418,1166,2432,1928,1
"72","list3","Filler","4",20,"three","1","3","3","3","3",4,"first_half",3011,2137,2979,1031,1
"72","list3","Filler","2",16,"five","4","2","1","1","1",5,"first_half",2338,1356,2445,1603,1
"72","list3","Exp","2",9,"not all","2","2","1","1","1",6,"first_half",3203,988,3581,1787,1
"72","list3","Filler","2",26,"zero","1","1","1","1","1",7,"first_half",1706,1083,2980,2389,1
"72","list3","Exp","3",23,"all","2","4","4","4","4",8,"first_half",2962,1667,1429,759,1
"72","list3","Exp","4",10,"none","1","3","3","3","3",9,"first_half",3272,996,1661,1130,1
"72","list3","Filler","3",27,"two","1","3","3","4","4",10,"first_half",2139,1094,1883,1067,1
"72","list3","Filler","3",8,"five","1","3","4","4","4",11,"first_half",1514,1231,3723,893,1
"72","list3","Exp","4",4,"all","2","4","3","3","3",12,"first_half",1582,916,1353,745,1
"72","list3","Filler","1",19,"three","1","1","2","2","2",13,"first_half",1915,869,2758,787,1
"72","list3","Exp","2",6,"all","2","2","1","1","1",14,"first_half",2025,1077,1220,824,1
"72","list3","Exp","3",7,"not all","3","3","4","4","4",15,"first_half",1239,775,1808,1181,1
"72","list3","Filler","2",29,"three","3","1","1","1","1",16,"second_half",1201,1069,1521,913,1
"72","list3","Filler","1",28,"two","3","1","1","2","2",17,"second_half",1395,944,2274,1535,1
"72","list3","Exp","4",21,"some","2","2","4","3","3",18,"second_half",1828,1673,2947,2430,1
"72","list3","Exp","1",14,"not all","1","1","2","2","2",19,"second_half",1502,875,1745,4224,1
"72","list3","Filler","4",32,"five","3","3","3","3","3",20,"second_half",1287,706,2461,880,1
"72","list3","Exp","1",1,"all","3","1","2","2","2",21,"second_half",1777,840,1420,568,1
"72","list3","Exp","3",22,"none","2","4","4","4","4",22,"second_half",1947,1124,1109,2513,1
"72","list3","Exp","3",5,"some","1","3","3","4","4",23,"second_half",1084,819,1204,3890,1
"72","list3","Filler","4",13,"zero","1","3","3","3","3",24,"second_half",1340,999,1280,861,1
"72","list3","Exp","2",2,"some","3","1","1","1","1",25,"second_half",1621,1037,1283,852,1
"72","list3","Filler","1",12,"zero","2","2","2","2","2",26,"second_half",1274,619,1271,729,1
"72","list3","Filler","4",25,"zero","4","4","4","3","3",27,"second_half",1125,1028,1210,1405,1
"72","list3","Exp","1",3,"none","3","1","2","2","2",28,"second_half",1346,1251,4034,914,1
"72","list3","Exp","1",15,"some","1","1","2","2","2",29,"second_half",927,697,2322,754,1
"72","list3","Exp","4",18,"not all","2","4","3","3","3",30,"second_half",1236,1625,2047,1143,1
"72","list3","Exp","2",17,"none","3","1","1","1","1",31,"second_half",2372,981,1203,681,1
"72","list3","Filler","3",24,"two","1","3","4","4","4",32,"second_half",1012,911,1368,894,1
"67","list2","Filler","2",13,"five","3","4","1","1","1",1,"first_half",2522,2294,2548,604,1
"67","list2","Exp","2",18,"some","1","3","1","1","1",2,"first_half",1505,3312,3557,693,1
"67","list2","Filler","3",30,"three","1","2","4","4","4",3,"first_half",1201,5050,2616,785,1
"67","list2","Exp","3",21,"none","3","2","4","4","4",4,"first_half",1569,4591,3248,913,1
"67","list2","Filler","4",16,"three","1","2","3","3","3",5,"first_half",4716,1074,2330,565,1
"67","list2","Exp","1",9,"some","3","4","2","2","2",6,"first_half",1032,1282,1474,396,1
"67","list2","Filler","1",31,"five","3","4","1","2","2",8,"first_half",1044,1226,2575,729,1
"67","list2","Filler","3",20,"two","1","2","4","4","4",9,"first_half",3502,961,1610,657,1
"67","list2","Exp","1",3,"all","3","1","4","4","4",10,"first_half",1073,1142,2002,1330,1
"67","list2","Filler","3",27,"two","3","3","3","4","4",11,"first_half",1333,15623,1778,3385,1
"67","list2","Filler","1",24,"three","4","1","2","2","2",12,"first_half",1057,2599,1072,721,1
"67","list2","Exp","2",2,"none","2","2","1","1","1",13,"first_half",2005,1266,1274,495,1
"67","list2","Filler","4",32,"five","1","3","3","3","3",14,"first_half",789,1249,2521,632,1
"67","list2","Filler","3",19,"five","3","3","4","4","4",15,"first_half",897,1081,1073,440,1
"67","list2","Exp","2",17,"all","4","1","1","1","1",16,"second_half",832,1310,792,521,1
"67","list2","Exp","3",4,"not all","1","3","4","4","4",17,"second_half",648,1073,2247,392,1
"67","list2","Filler","4",25,"zero","4","4","4","3","3",18,"second_half",968,1250,1297,1442,1
"67","list2","Filler","2",26,"zero","3","1","1","1","1",19,"second_half",780,1113,5284,600,1
"67","list2","Exp","4",7,"some","1","3","3","3","3",20,"second_half",672,945,1158,584,1
"67","list2","Filler","4",11,"zero","3","3","3","3","3",21,"second_half",672,1626,1938,433,1
"67","list2","Filler","1",28,"two","3","1","1","2","2",22,"second_half",652,873,1466,1090,1
"67","list2","Exp","4",15,"none","2","3","3","3","3",23,"second_half",587,1217,1386,376,1
"67","list2","Filler","2",29,"three","3","1","1","1","1",24,"second_half",664,1542,1274,1001,1
"67","list2","Exp","3",14,"some","1","3","4","4","4",25,"second_half",716,1257,897,521,1
"67","list2","Exp","1",10,"all","3","1","1","2","2",26,"second_half",929,1038,993,657,1
"67","list2","Filler","2",12,"two","2","2","1","1","1",27,"second_half",609,1474,1078,456,1
"67","list2","Exp","1",1,"not all","2","2","2","2","2",29,"second_half",1205,2912,1599,488,1
"67","list2","Exp","4",6,"not all","2","3","3","3","3",30,"second_half",672,1002,1209,661,1
"67","list2","Filler","1",8,"zero","3","1","2","2","2",31,"second_half",712,1907,1546,420,1
"67","list2","Exp","1",5,"none","2","2","1","2","2",32,"second_half",632,593,1065,1698,1
"87","list2","Filler","1",28,"two","1","1","1","2","2",1,"first_half",1165,1027,2128,1493,1
"87","list2","Filler","2",13,"five","2","2","1","1","1",2,"first_half",1613,921,1753,710,1
"87","list2","Exp","3",21,"none","1","4","4","4","4",3,"first_half",1247,1630,1615,872,1
"87","list2","Exp","4",15,"none","4","4","3","3","3",4,"first_half",1850,710,1615,855,1
"87","list2","Exp","2",17,"all","3","3","1","1","1",5,"first_half",750,2144,1068,1688,1
"87","list2","Filler","4",11,"zero","1","3","3","3","3",6,"first_half",1679,1313,2112,571,1
"87","list2","Filler","2",12,"two","3","2","1","1","1",7,"first_half",962,1566,1125,611,1
"87","list2","Exp","1",1,"not all","4","2","2","2","2",8,"first_half",1655,1109,1810,889,1
"87","list2","Filler","3",27,"two","2","2","4","4","4",9,"first_half",1199,570,1973,2020,1
"87","list2","Exp","2",2,"none","4","2","1","1","1",10,"first_half",1184,1305,1484,1107,1
"87","list2","Exp","4",22,"all","1","3","3","3","3",11,"first_half",808,1036,1574,717,1
"87","list2","Exp","2",23,"not all","3","2","2","1","1",12,"first_half",864,1255,1256,1810,1
"87","list2","Filler","4",25,"zero","1","4","4","3","3",13,"first_half",937,1194,1285,1957,1
"87","list2","Filler","3",19,"five","3","3","4","4","4",14,"first_half",872,856,1924,685,1
"87","list2","Exp","3",4,"not all","4","4","4","4","4",15,"first_half",1051,978,1403,611,1
"87","list2","Filler","4",32,"five","4","4","4","3","3",16,"second_half",929,913,1818,1093,1
"87","list2","Filler","1",31,"five","3","1","1","2","2",17,"second_half",1328,1191,815,1680,1
"87","list2","Exp","1",9,"some","2","2","2","2","2",18,"second_half",709,669,1149,1199,1
"87","list2","Filler","3",20,"two","2","3","3","4","4",19,"second_half",668,1525,1337,987,1
"87","list2","Exp","1",5,"none","4","2","2","2","2",20,"second_half",757,1451,873,546,1
"87","list2","Filler","4",16,"three","3","3","3","3","3",22,"second_half",692,742,2079,652,1
"87","list2","Exp","3",14,"some","3","3","4","4","4",23,"second_half",676,587,1305,587,1
"87","list2","Filler","1",8,"zero","4","2","2","2","2",24,"second_half",774,1508,897,530,1
"87","list2","Filler","2",26,"zero","2","2","2","1","1",25,"second_half",929,676,840,1484,1
"87","list2","Exp","4",6,"not all","1","3","3","3","3",26,"second_half",635,1508,1061,570,1
"87","list2","Exp","2",18,"some","3","2","2","1","1",27,"second_half",823,1223,807,1336,1
"87","list2","Filler","2",29,"three","1","1","2","1","1",29,"second_half",2771,734,2731,1191,1
"87","list2","Filler","3",30,"three","1","1","3","4","4",30,"second_half",677,750,1745,961,1
"87","list2","Filler","1",24,"three","4","1","2","2","2",31,"second_half",676,1101,1297,673,1
"87","list2","Exp","4",7,"some","2","3","3","3","3",32,"second_half",729,1492,938,489,1
"103","list2","Filler","4",25,"zero","1","3","3","3","3",1,"first_half",3923,964,988,932,1
"103","list2","Filler","3",27,"two","3","3","3","4","4",2,"first_half",2389,1004,970,1300,1
"103","list2","Exp","2",23,"not all","3","1","1","1","1",3,"first_half",1003,966,4321,1377,1
"103","list2","Exp","1",3,"all","1","1","4","4","4",4,"first_half",938,613,2342,424,1
"103","list2","Exp","2",2,"none","4","4","1","1","1",5,"first_half",1294,4058,1279,676,1
"103","list2","Exp","2",17,"all","1","1","1","1","1",6,"first_half",673,587,1157,579,1
"103","list2","Filler","4",32,"five","1","3","3","3","3",7,"first_half",748,2670,796,582,1
"103","list2","Exp","4",22,"all","3","3","3","3","3",8,"first_half",827,802,1254,498,1
"103","list2","Filler","4",11,"zero","3","3","3","3","3",9,"first_half",757,797,1776,505,1
"103","list2","Exp","3",14,"some","3","3","4","4","4",10,"first_half",686,772,1276,628,1
"103","list2","Exp","3",4,"not all","3","3","4","4","4",11,"first_half",947,863,2369,741,1
"103","list2","Exp","2",18,"some","4","2","1","1","1",12,"first_half",717,1326,884,562,1
"103","list2","Filler","4",16,"three","1","3","3","3","3",13,"first_half",705,1458,1688,738,1
